"id","id_subj","round","session","period","id_grp","grp","time","time_start","duration","links","payoff"
"1","2287","1","23","1","47","1","1581421832","1581421725","118","[19,42,75,46,49,17,64,76,72,10,9,78,86,39,56,45,23,70,28,14,12,90]","-211.6"
"2","2271","1","23","1","18","1","1581421838","1581421725","118","[72,15,76,25,17,49,38,99,64,14,39,10,57,27,4,67]","-273.6"
"3","2241","1","23","1","9","1","1581421843","1581421725","118","[1,47,25,10,64,78,36,68,2,28,70,14,37,15,52,18,51,91]","-182.9"
"4","2259","1","23","1","57","1","1581421837","1581421725","118","[15,100,8,82,87,59,74,5,11]","35"
"5","2201","1","23","1","5","1","1581421842","1581421725","118","[38,22,100,13,54,57,12,92,29]","-163.2"
"6","2221","1","23","1","71","1","1581421842","1581421725","118","[42,46,37,52,34,58]","-0.1"
"7","2229","1","23","1","77","1","1581421828","1581421725","118","[8,48,74,17,94,58,46,71]","147.5"
"8","2253","1","23","1","19","1","1581421841","1581421725","118","[20,99,91,84,85,43,61,97,8,77,37,79,45,89,73,88]","-17.6"
"9","2236","1","23","1","92","1","1581421814","1581421725","118","[37,1,57,63,19,36,17,45,49,93,33,5]","89.8"
"10","2227","1","23","1","23","1","1581421824","1581421725","118","[42,70,58,3,22,41,51,64]","34.2"
"11","2249","1","23","1","30","1","1581421836","1581421725","118","[59,68,37,54,27,34]","-30.8"
"12","2218","1","23","1","78","1","1581421835","1581421725","118","[47,4,93,87,76,24,36,68,97,23]","98.7"
"13","2230","1","23","1","14","1","1581421842","1581421725","118","[100,38,27,8,75,43,59,90,94,96,91,71,80,68,28,15,49,33,7,10,18,62,4,17,37,42,99,88,52,9,76,67,3,31,70,47,48,74,93,55,65,21,12,25,50,6]","-483.3"
"14","2232","1","23","1","52","1","1581421839","1581421725","118","[64,84,58,45,71,91,9,11,56,20,34,51]","-146.3"
"15","2209","1","23","1","7","1","1581421843","1581421725","118","[13,46,68,72,20,90,14,80,67,54,84,10,33]","-65"
"16","2210","1","23","1","96","1","1581421818","1581421725","118","[81,86,61,21,100,74,97,84]","-30.2"
"17","2263","1","23","1","27","1","1581421842","1581421725","118","[74,72,14,49,34,30,13,62,18,4,10,2,48]","-201.2"
"18","2219","1","23","1","25","1","1581421841","1581421725","118","[26,72,37,76,18,42,51,14,68]","-88.1"
"19","2214","1","23","1","85","1","1581421843","1581421725","118","[100,97,48,74,98,8,63,73,82,3,32,21,79,45,23,64,95,66,77,61,81]","31"
"20","2242","1","23","1","1","1","1581421843","1581421725","118","[18,85,38,76,75,100,90,93,74,24,97,51,25,12,2]","102.4"
"21","2204","1","23","1","28","1","1581421835","1581421725","118","[71,26,56,91,67,74,12,98,9,59,68,46,37,42,79,89,39,36,47,61,44,45,34,75]","-248"
"22","2224","1","23","1","100","1","1581421830","1581421725","118","[21,60,86,96,72,98,50,6,44]","-227.7"
"23","2215","1","23","1","56","1","1581421843","1581421725","118","[76,84,15,72,64,58,98,25,45,17,46,79,59,57,11,47,28,35,32,97,37,20,65]","-195.8"
"24","2258","1","23","1","75","1","1581421843","1581421725","118","[76,15,73,88,45,57,9,35,70,12,68,2]","-31.6"
"25","2205","1","23","1","79","1","1581421841","1581421725","118","[37,25,77,59,11,70,91,51,75,6,40,26,15,46]","-66.6"
"26","2213","1","23","1","83","1","1581421725","1581421725","118","[]","0"
"27","2247","1","23","1","84","1","1581421725","1581421725","118","[]","0"
"28","2269","1","23","1","60","1","1581421839","1581421725","118","[53,82,95,52,71,80,34,77,58]","147.5"
"29","2233","1","23","1","17","1","1581421842","1581421725","118","[68,47,72,19,56,69,73,46,44]","-173.5"
"30","2216","1","23","1","69","1","1581421840","1581421725","118","[8,75,58,42,98,89]","94"
"31","2222","1","23","1","93","1","1581421843","1581421725","118","[67,3,31,86,100,50]","0"
"32","2208","1","23","1","51","1","1581421834","1581421725","118","[19,32,90,94,55,93,57,48,36,25,68,79,98,37,42,45,39,24,16,59,41,35,52,97,71,26,23,21,82,1]","-86.8"
"33","2223","1","23","1","8","1","1581421825","1581421725","118","[25,68]","169"
"34","2295","1","23","1","89","1","1581421813","1581421725","118","[37,91,28]","10.8"
"35","2286","1","23","1","49","1","1581421843","1581421725","118","[10,15,33,18,47,29,4,20,26,67,27,3,14,92,62,31,48,6,23,37,22,12,25,70,56,68,50,53,41,32,57]","-243.2"
"36","2257","1","23","1","10","1","1581421827","1581421725","118","[100,64,76,47,72,25,45,18,14,9,49,33,11,68,8,7]","-286.2"
"37","2251","1","23","1","65","1","1581421836","1581421725","118","[84,37,8,100,48,97,85,80,98,57,68,77,71,81,88,66,99,72,44,63,61,96,82,40]","-88.6"
"38","2254","1","23","1","13","1","1581421837","1581421725","118","[8,97,22,7,5,38,54,94]","-38.6"
"39","2273","1","23","1","39","1","1581421843","1581421725","118","[74,32,72,12]","146.5"
"40","2283","1","23","1","34","1","1581421832","1581421725","118","[72,37,8,36,91,11,17,58,48,73,76,52,45,90,21,82,32,35,30,80,53,71]","-159"
"41","2277","1","23","1","31","1","1581421828","1581421725","118","[67]","137"
"42","2280","1","23","1","54","1","1581421842","1581421725","118","[72,97,17,100,85,64,90,87,23,38,33,13]","-11"
"43","2261","1","23","1","66","1","1581421843","1581421725","118","[8,21,97,63,100,80,82,57,53,61,52,77,89,91,95,58,46]","-41.5"
"44","2255","1","23","1","99","1","1581421843","1581421725","118","[37,81,8,21,68,19,98,88,53,63,72,69,71,50,85,58,65,80]","-91.1"
"45","2290","1","23","1","53","1","1581421837","1581421725","118","[25,68,64,80,23,41,34]","-34.4"
"46","2256","1","23","1","70","1","1581421843","1581421725","118","[15,74,72,48,47,9,57,75]","-51.3"
"47","2274","1","23","1","63","1","1581421840","1581421725","118","[8,97,100,99,19,81,96,66]","20.6"
"48","2243","1","23","1","35","1","1581421836","1581421725","118","[1,38,16,58,51,75,79,26,56,15]","64.8"
"49","2235","1","23","1","58","1","1581421838","1581421725","118","[97,79,45,68,50,35,90,88,77,100,56,52,95,34,75,71,69,23,82,55,84,60,91,46,19,99,66,53,83,93]","403.7"
"50","2252","1","23","1","40","1","1581421843","1581421725","118","[24,57,93,67,81,10]","105.8"
"51","2281","1","23","1","76","1","1581421833","1581421725","118","[25,12,8,10]","17"
"52","2262","1","23","1","12","1","1581421842","1581421725","118","[38,8,97,100,22,64,18,82,27,16,5,28,39,81,75,33,47,94,76,49,15,14,1]","218.3"
"53","2278","1","23","1","37","1","1581421843","1581421725","118","[8,25,64,32,77,73,68,89,69,42,30,91,9,50,19,56,75,45,36,47,70]","-275.4"
"54","2270","1","23","1","91","1","1581421838","1581421725","118","[71,15,48,74,89,76,37,42,77,28,19,45,34,52,58,79,73,6,46,97,80,36]","-352.2"
"55","2276","1","23","1","29","1","1581421839","1581421725","118","[37,8,100,24,64,97,96,94,90,85,4,27,43,48,49,5,39]","-45.2"
"56","2296","1","23","1","36","1","1581421837","1581421725","118","[45,9,77,79,42,17,28]","3.2"
"57","2294","1","23","1","72","1","1581421841","1581421725","118","[100,48,98,77,99,81,50,58,17,7]","-196.8"
"58","2212","1","23","1","87","1","1581421825","1581421725","118","[57,78]","65.6"
"59","2248","1","23","1","80","1","1581421840","1581421725","118","[1,8,100,68,58,97,48,82,71,77,53,66,32,52,36,91,15]","-13.8"
"60","2299","1","23","1","22","1","1581421842","1581421725","118","[38,16,5,24,23,12,54,57,13]","-38.6"
"61","2300","1","23","1","59","1","1581421842","1581421725","118","[24,84,57,79,67,48,16,1,14,41,28,56,30,51,68,2,38,62]","-13.1"
"62","2211","1","23","1","68","1","1581421842","1581421725","118","[8,37,17,1,79,80,58,75,85,99,42,63,82,57,9,72,77,53,11,71,28,51,70,78,69,30,50,14,7,10,59,25,94,41,2,48,97,45,73,44,84,4,39,36,46,88,40,49,65,43]","823.4"
"63","2240","1","23","1","4","1","1581421841","1581421725","118","[9,1,97,64,82,27,84,99,38,18,29,26,49,14,39,92,3,15,62,76,70,12]","-270.8"
"64","2289","1","23","1","98","1","1581421832","1581421725","118","[8,48,99,72,100,63,69,50,73,21,74,67,84,93]","-161.2"
"65","2228","1","23","1","55","1","1581421725","1581421725","118","[]","0"
"66","2267","1","23","1","50","1","1581421834","1581421725","118","[1,48,100,98,90,8,82,68,21,96,72,67,6,73]","-56.9"
"67","2265","1","23","1","33","1","1581421836","1581421725","118","[1,38,49,100,17,97,64,85,10,14,26,8,54,39,62,11,12,18,57,76,7,25,48]","-170"
"68","2245","1","23","1","94","1","1581421831","1581421725","118","[8,100,21,97,98,63,72,46,86,51,25,67,15,68,29,12,76,14]","-31.8"
"69","2266","1","23","1","44","1","1581421831","1581421725","118","[17,76,100,8,32,75,90,85,81,86,68,28,65]","-129.9"
"70","2272","1","23","1","81","1","1581421837","1581421725","118","[31,18,73,12,88,44,99,96,63,72,93,21,55,46,74,40,85,65]","1.8"
"71","2298","1","23","1","43","1","1581421835","1581421725","118","[68,20]","101.6"
"72","2244","1","23","1","20","1","1581421842","1581421725","118","[8,49,7,100,54,14,13,43,82,52,6,27,67,56]","-102.4"
"73","2288","1","23","1","41","1","1581421842","1581421725","118","[18,11,68,23,24,51,59,53]","-129.2"
"74","2226","1","23","1","21","1","1581421725","1581421725","118","[]","0"
"75","2239","1","23","1","95","1","1581421838","1581421725","118","[78,24,25,58,37,17,46,52,19,85,88,66]","47.7"
"76","2268","1","23","1","97","1","1581421831","1581421725","118","[57,76,51,78,70,56,25,75,28,9]","22.4"
"77","2282","1","23","1","48","1","1581421843","1581421725","118","[8,100,17,1,59,32,57,49,7]","92.1"
"78","2234","1","23","1","62","1","1581421826","1581421725","118","[27,33,14,49,59,4]","-188"
"79","2238","1","23","1","16","1","1581421842","1581421725","118","[100,18,85,33,35,11,87,51,59]","17.9"
"80","2279","1","23","1","88","1","1581421838","1581421725","118","[8,100,81,58,6,60,83,97,85,65,99]","-68.3"
"81","2237","1","23","1","67","1","1581421828","1581421725","118","[31,15,59,28,7,49,45,50,66,77,26,3,40,90]","11.2"
"82","2220","1","23","1","45","1","1581421829","1581421725","118","[8,76,24,19,90,47,51,53,73,79,52,68,28,35]","-76.8"
"83","2297","1","23","1","3","1","1581421842","1581421725","118","[67,15,49,18,39,14,10]","-59.1"
"84","2275","1","23","1","24","1","1581421841","1581421725","118","[78,64,22,18,25,76,51,61,87,32,59,54,38,11,41]","-122"
"85","2217","1","23","1","6","1","1581421843","1581421725","118","[49,37,64,18,100,20,43,75,10,90,76,42,88,50,91,61,25,74,86,19,79,14]","-141.3"
"86","2291","1","23","1","26","1","1581421842","1581421725","118","[8,100,21,97,35,7]","133.5"
"87","2293","1","23","1","11","1","1581421841","1581421725","118","[72,90,37,48,74,88,19,16,1,57,78,24,32,87]","-13.6"
"88","2202","1","23","1","2","1","1581421817","1581421725","118","[9,15,67,59,68]","-29.3"
"89","2207","1","23","1","32","1","1581421826","1581421725","118","[1,35,51]","147.5"
"90","2225","1","23","1","46","1","1581421842","1581421725","118","[37,47,82,84,1,64,56,53,79,17,58,91,28,45]","-203.8"
"91","2203","1","23","1","38","1","1581421841","1581421725","118","[5,74,43,24,59,16,12,57,76,54]","-22.9"
"92","2292","1","23","1","42","1","1581421829","1581421725","118","[36,90,72,47,68,91,75,37,45,28]","-159.4"
"93","2246","1","23","1","74","1","1581421725","1581421725","118","[]","0"
"94","2285","1","23","1","86","1","1581421840","1581421725","118","[47,96,100,6,44,40,50,72]","-56.6"
"95","2264","1","23","1","82","1","1581421725","1581421725","118","[]","0"
"96","2260","1","23","1","61","1","1581421836","1581421725","118","[19,96,85,63,66]","-43.8"
"97","2284","1","23","1","64","1","1581421838","1581421725","118","[76,8,9,1,48]","140.9"
"98","2206","1","23","1","73","1","1581421839","1581421725","118","[8,79,97,82,60,75,98,90,63,45,81,17]","-99.6"
"99","2231","1","23","1","90","1","1581421818","1581421725","118","[73,25,47]","83.5"
"100","2250","1","23","1","15","1","1581421843","1581421725","118","[49,18,67,1,25,75,91,70,14,80,35,56,2,3,84,4,40]","-301.2"
"101","2278","2","23","1","25","1","1581422383","1581422250","118","[47,46]","116"
"102","2267","2","23","1","24","1","1581422399","1581422250","118","[85,73,50,52,66]","154.4"
"103","2251","2","23","1","29","1","1581422399","1581422250","118","[17,38,61,97,24,9,43,59,11,32,1,54,6,92,60]","80.9"
"104","2259","2","23","1","83","1","1581422398","1581422250","118","[68,89,46,23,50,45,7]","-41"
"105","2254","2","23","1","62","1","1581422380","1581422250","118","[99,8,58,75,59,61,6]","89.4"
"106","2266","2","23","1","84","1","1581422390","1581422250","118","[38,39,50,12,77]","49.9"
"107","2279","2","23","1","95","1","1581422396","1581422250","118","[57,15,6,72,93,2,75,29,30,3,53,71,37,65,12]","-76.3"
"108","2235","2","23","1","3","1","1581422398","1581422250","118","[65,63,44,8,41,85,71,14,86,81,62,30,53,73,20,75,47,94,95,29,83,97,15,22,21,11,16,36,52,78,80]","37.4"
"109","2252","2","23","1","89","1","1581422397","1581422250","118","[83,90,77,12,43,65]","-66.4"
"110","2250","2","23","1","60","1","1581422391","1581422250","118","[93,76,47,42,92,73,48,77,54,35,81,94,41,8,29,51,39,98,82,23]","178"
"111","2239","2","23","1","71","1","1581422399","1581422250","118","[36,24,72,50,37,91]","33.7"
"112","2206","2","23","1","42","1","1581422391","1581422250","118","[8,17,80,75,59,15,12,13,39,64,49,52,97]","33.7"
"113","2243","2","23","1","30","1","1581422396","1581422250","118","[67,95,46,73,94,31]","74"
"114","2262","2","23","1","90","1","1581422397","1581422250","118","[89,57,50,3,39,66,93,78]","-7.9"
"115","2280","2","23","1","21","1","1581422387","1581422250","118","[37,64,15,25,47,80,17,79,16,94,73,36,44,46]","218.5"
"116","2264","2","23","1","16","1","1581422374","1581422250","118","[14]","125.9"
"117","2265","2","23","1","19","1","1581422397","1581422250","118","[38,58,59,1,96,56,31,64,43,63,70,9]","160.6"
"118","2293","2","23","1","92","1","1581422398","1581422250","118","[8,1,60,48,49,76,87,21,56,9,82,70,43]","49.2"
"119","2270","2","23","1","57","1","1581422398","1581422250","118","[72,24,15,69,36,81,88,50,17,90]","36.3"
"120","2292","2","23","1","93","1","1581422387","1581422250","118","[4,73,29,95,62,20,52,47,65,12,39,90,2]","-173.2"
"121","2295","2","23","1","4","1","1581422397","1581422250","118","[37,80,25,16,3,12,93,45,81,22,14,40,2]","-31.2"
"122","2300","2","23","1","44","1","1581422393","1581422250","118","[71,54,7,34,40,81,52,75,73,36,94,47,16,39,21]","-2.3"
"123","2297","2","23","1","47","1","1581422398","1581422250","118","[25,100,53,70,80,58,8,5]","-28"
"124","2273","2","23","1","26","1","1581422395","1581422250","118","[17,79,92,46,16,94,73,36,80,96]","113.9"
"125","2289","2","23","1","43","1","1581422369","1581422250","118","[5,97,19]","102.4"
"126","2277","2","23","1","99","1","1581422397","1581422250","118","[31,100]","147.9"
"127","2281","2","23","1","45","1","1581422390","1581422250","118","[46,72]","108.9"
"128","2246","2","23","1","27","1","1581422392","1581422250","118","[59,77,21,17]","161.4"
"129","2248","2","23","1","96","1","1581422359","1581422250","118","[19,36,81,16]","120.4"
"130","2256","2","23","1","65","1","1581422399","1581422250","118","[25,15,45,54,94,14,20,18,53,93,46,36,37,88,32,51,13,89]","66.8"
"131","2223","2","23","1","38","1","1581422399","1581422250","118","[76,21,36,25,31,75,59,96,94,55,20,37,9,78,33,46,58,5]","29.7"
"132","2299","2","23","1","76","1","1581422398","1581422250","118","[21,50,100,46]","50.9"
"133","2229","2","23","1","31","1","1581422399","1581422250","118","[17,84,30,32,56,22,49,40,88]","101"
"134","2216","2","23","1","9","1","1581422394","1581422250","118","[37,31,46,72,39,29]","180.8"
"135","2255","2","23","1","1","1","1581422398","1581422250","118","[100,41,96,86,6,37,68,11]","74.5"
"136","2232","2","23","1","63","1","1581422323","1581422250","118","[80,79,58,55,77]","226.1"
"137","2208","2","23","1","46","1","1581422398","1581422250","118","[74,55,94,5,47,70,50,10,53,2,92,75,77,67,66,86,100,6,72,43,45,83,26,21,76,85,13,37,1,80,12,56,65,69,58,9,30,33,49,31,79,23,81,11,54,60,91,29,61,19,87,25,40,18,20,22,68,99,38,3]","1347.6"
"138","2211","2","23","1","50","1","1581422399","1581422250","118","[72,84,36,64,98,31,18,88,48,15,76,89,91,63,34,24,94,71,100,66,8,51,97,90,83,68,87,62,96,77,16,47,20,73,33,44,12,49,37,1,25,35,86,6,58,30,69,23,11,57,95,2,78,61,80,55,21,93,52,10,5,32,74,17,81,39,4,22,54,40,13,46]","1168.2"
"139","2203","2","23","1","48","1","1581422397","1581422250","118","[36,25,85,72,54,31,69,14]","72.7"
"140","2205","2","23","1","13","1","1581422394","1581422250","118","[42,15,81,46,87,74]","238"
"141","2285","2","23","1","18","1","1581422387","1581422250","118","[49,17,45,5,68,87,44,41]","60.1"
"142","2241","2","23","1","97","1","1581422398","1581422250","118","[75,72,6,42,54,41,79,10,92,50,17]","55.7"
"143","2209","2","23","1","66","1","1581422393","1581422250","118","[99,37,18,34,24,52,12,15,22,45,35,81,98,83]","49.1"
"144","2226","2","23","1","94","1","1581422250","1581422250","118","[]","0"
"145","2228","2","23","1","73","1","1581422250","1581422250","118","[]","0"
"146","2242","2","23","1","6","1","1581422396","1581422250","118","[53,19,9,75,49,77,99,96,25,31,43,37,79,61,59,86,5]","29.7"
"147","2245","2","23","1","100","1","1581422399","1581422250","118","[8,1,48,99,79,76,68,69,86,72,74,50,37,34,92,5,91,29,23,49]","9.7"
"148","2221","2","23","1","40","1","1581422397","1581422250","118","[97,7,66,49,37,68]","94.3"
"149","2257","2","23","1","34","1","1581422389","1581422250","118","[100,50]","104.4"
"150","2201","2","23","1","2","1","1581422399","1581422250","118","[12,95,93,4]","-69.6"
"151","2214","2","23","1","10","1","1581422399","1581422250","118","[85,15,86]","104.2"
"152","2268","2","23","1","53","1","1581422389","1581422250","118","[46,45,25,76,34,87,56,64,18,74,91,23]","0.1"
"153","2282","2","23","1","7","1","1581422381","1581422250","118","[16,88,64,80,47,82,22,59,72,56,14,31,52,5,32,83,2]","21.4"
"154","2283","2","23","1","85","1","1581422393","1581422250","118","[24,36,3,39,18,10,43,77,5,46]","199.4"
"155","2227","2","23","1","55","1","1581422357","1581422250","118","[36,99,96,61,63,86,41]","66.8"
"156","2291","2","23","1","37","1","1581422396","1581422250","118","[61,58,36,21]","107.2"
"157","2272","2","23","1","49","1","1581422399","1581422250","118","[72,5,18,23,11,6,92,50,20,40,46,31,77,42,67,71,100,58,35]","327.5"
"158","2234","2","23","1","61","1","1581422382","1581422250","118","[20]","145"
"159","2233","2","23","1","74","1","1581422396","1581422250","118","[57,79,63,46,17,21,9,15,69,100,97,91,51,71,25,53]","2.5"
"160","2219","2","23","1","64","1","1581422396","1581422250","118","[38,42,53,23]","72"
"161","2202","2","23","1","98","1","1581422338","1581422250","118","[50,21,17]","103.2"
"162","2236","2","23","1","22","1","1581422395","1581422250","118","[84,6,20,7,51]","85.9"
"163","2230","2","23","1","52","1","1581422396","1581422250","118","[100,59,19,32,94,16,99,1,96,75,41,55,95,20,73,47,10,24,66,44]","13.7"
"164","2261","2","23","1","56","1","1581422372","1581422250","118","[68,60,29,46,69,53,87]","-28.2"
"165","2288","2","23","1","70","1","1581422394","1581422250","118","[86,46,67,19]","80.2"
"166","2237","2","23","1","91","1","1581422393","1581422250","118","[71,48,50,79,46,20,41]","35.8"
"167","2212","2","23","1","80","1","1581422395","1581422250","118","[63,61,41]","63.5"
"168","2244","2","23","1","68","1","1581422399","1581422250","118","[8,85,37,92,9,91,83,79,88,24,40,5,48,69,50]","-56.3"
"169","2296","2","23","1","81","1","1581422398","1581422250","118","[82,17,4,60,44]","45"
"170","2217","2","23","1","77","1","1581422394","1581422250","118","[98,36,67,88,15,32,18,8,6,46,41,58,27,60,35,50,63,92,85,19,89,49,44,16,22,84,86]","264.6"
"171","2220","2","23","1","82","1","1581422398","1581422250","118","[1,60,22,97,62,11]","129.7"
"172","2210","2","23","1","58","1","1581422397","1581422250","118","[8,37,48,75,77,59,63,19,79,62,5,68,29,38,46,44,50,14,23,47,6,18,71,49,41]","863.5"
"173","2240","2","23","1","5","1","1581422393","1581422250","118","[9,58,79,80,25,43,49,16,46,17,18,68,66,86,31,97,32,95,13,38,88,50,85,45,87,7,75,100,14,44,15,10,37,56,27,28,29,6,47]","28.1"
"174","2249","2","23","1","28","1","1581422390","1581422250","118","[39,12,7,36,73,96,24,16,5]","109.1"
"175","2294","2","23","1","59","1","1581422393","1581422250","118","[99,58,54,79]","118.2"
"176","2276","2","23","1","32","1","1581422394","1581422250","118","[24,76,51,50,87]","109.4"
"177","2238","2","23","1","86","1","1581422398","1581422250","118","[17,8,48,37,21,79,10,92,55,63,41,80]","13.4"
"178","2213","2","23","1","17","1","1581422397","1581422250","118","[72,37,26,98,74,36,20,41,16,73,66,81,50]","-34.2"
"179","2222","2","23","1","23","1","1581422393","1581422250","118","[49,80,26,8,58,60,87,92,69,17,31,20,25,95,50,12,46,48,53,74]","23.2"
"180","2290","2","23","1","11","1","1581422386","1581422250","118","[49,37,16,26,6,17,40,69,61,48,21,1]","53.4"
"181","2218","2","23","1","51","1","1581422399","1581422250","118","[50]","178.5"
"182","2224","2","23","1","14","1","1581422386","1581422250","118","[16,51,58,59,96,19,99,1,17,11,54,20,44,48]","169.2"
"183","2287","2","23","1","78","1","1581422393","1581422250","118","[79,7,3,38,50,41,80,94,90]","41.8"
"184","2215","2","23","1","72","1","1581422399","1581422250","118","[18,50,57,45,49,9,88,8,34,97,38,30,87,85,100,4,7,17,69,46,75,14,94,16,71,95,48,68,32]","87"
"185","2253","2","23","1","67","1","1581422399","1581422250","118","[46,33,70,49,77]","14.3"
"186","2275","2","23","1","15","1","1581422356","1581422250","118","[45,62,13,88]","127.4"
"187","2298","2","23","1","36","1","1581422300","1581422250","118","[69]","0"
"188","2231","2","23","1","75","1","1581422357","1581422250","118","[72]","157.2"
"189","2269","2","23","1","41","1","1581422399","1581422250","118","[59,75,19,78,91,51,80,86,25,18,58,62,6,21]","102.6"
"190","2263","2","23","1","79","1","1581422399","1581422250","118","[25,59,37,63,41,66,10,55,21,43]","17.9"
"191","2284","2","23","1","33","1","1581422399","1581422250","118","[59,38,67,52]","73.7"
"192","2247","2","23","1","87","1","1581422390","1581422250","118","[71,15,36,41,23,68,76,5,47,56,98,74,46,66,32,33,88]","-76.1"
"193","2271","2","23","1","8","1","1581422395","1581422250","118","[37,25,47,77,19,17,100,58,11,43,31,62,92,22,29,41,24,10,52,81,66,39,73,94]","-104.9"
"194","2260","2","23","1","35","1","1581422373","1581422250","118","[57,50,77,65]","110.4"
"195","2258","2","23","1","39","1","1581422396","1581422250","118","[64,55,66,63,9,11,31,53,44,51,90,71]","41.9"
"196","2204","2","23","1","69","1","1581422398","1581422250","118","[8,37,1,48,17,80,79,66,68,92,25,87,23,56,21,11,82,53,76,100,40,51,31,12,4]","-120.4"
"197","2286","2","23","1","12","1","1581422398","1581422250","118","[51,28,30,4,2,42,7,84,50,10,46,69,23,66,93,89,37,38,95]","215.8"
"198","2207","2","23","1","88","1","1581422382","1581422250","118","[66,50]","178.5"
"199","2274","2","23","1","20","1","1581422395","1581422250","118","[97,22,37,96,61,11,62,25,87,54,60,23,17,21,31,49,14,44,50,91,100]","232.3"
"200","2225","2","23","1","54","1","1581422391","1581422250","118","[41,1,42,11,20,14,16]","74.2"
"201","2248","3","23","1","80","1","1581423112","1581422796","149","[17]","217.4"
"202","2229","3","23","1","20","1","1581423115","1581422796","149","[76,84,37,80,10,36,50,22,5,51,49,79,1,29,11,45,46,9]","171.4"
"203","2277","3","23","1","6","1","1581423113","1581422796","149","[100,59,10,39,23,17,41,5]","260.3"
"204","2273","3","23","1","93","1","1581423113","1581422796","149","[67,96,17]","217.4"
"205","2212","3","23","1","97","1","1581423117","1581422796","149","[78,2,62,57,40,38,58,54,96,95,86,93,28,32]","154.4"
"206","2254","3","23","1","96","1","1581423108","1581422796","149","[74,17]","217.4"
"207","2299","3","23","1","71","1","1581423113","1581422796","149","[91,77,82,60]","101.6"
"208","2241","3","23","1","76","1","1581423116","1581422796","149","[47,17,23,66,78,97,80]","247.5"
"209","2215","3","23","1","83","1","1581423119","1581422796","149","[84,25,97,93,10,66,3,46,91,17,49]","160"
"210","2257","3","23","1","4","1","1581423119","1581422796","149","[67,84,100,57,80,3,18,7,46,33,12,75,13,17,52,14,98,90,16]","63.6"
"211","2214","3","23","1","31","1","1581423119","1581422796","149","[82,78,66,20,34,60]","95.5"
"212","2211","3","23","1","17","1","1581423108","1581422796","149","[26,98,52,42,73,61,31,70,50,89,28,90,49,60,93,32,55,66,87,40,22,24,33,53,29,9,44,78,43,25,100,30,46,57,80,65,23,72,14,3,45,18,2,4,77,59,83,97,16,19,47,86,37,69,8,88,56,95,92,82,20,71,15,64,81,34,36,1,48,85,94,96,10,76,6,21,35,84,68,99,79,13,5,27,91,54,62,58,67,38,51,74,11,7,63,39,75,41,12]","5042.7"
"213","2251","3","23","1","62","1","1581423114","1581422796","149","[97,88,27,96,7,6,17,82]","295.5"
"214","2219","3","23","1","100","1","1581423115","1581422796","149","[57,78,63,36,15,30,84,51,50,31,87,56,90,89,66,68,86,70,83,23,39,33,10,4]","17.5"
"215","2270","3","23","1","39","1","1581423110","1581422796","149","[76,82,17,23]","217.4"
"216","2235","3","23","1","64","1","1581423114","1581422796","149","[81,7,40,71,10,20,27,66,53,2,78,16,4,67,29,15,60,36,86,8,38,98,85,58,45,14,3,37,39,89,35,97,82,74,56,96,95,90,13,21,59,46,32,80,76,44,17]","-75.5"
"217","2290","3","23","1","54","1","1581423118","1581422796","149","[3,46]","87"
"218","2250","3","23","1","27","1","1581423117","1581422796","149","[9,11,91,87,62,45,4,93,34,69,64,92,60,24,7,17,63,13,29,52,81,15,46,78,5,86]","-120.9"
"219","2208","3","23","1","24","1","1581423111","1581422796","149","[1,61,41,77,22,57,16,19,47,44,17,50,79,4,36,23,91,51,58,92,55,74,33,68,65,12,83,100,86,25,99,13,46,90,73,11,64,27,71,82,34,26,95,72,85,56,10,42,29,70,45,63,20,37,66,96,78,14,88,48,87,7,38,98,5,9,67,43,60,3,31,59,75,40,39,76,8,62,28,32,84,80,89,30,53,2,52,54,18]","207.2"
"220","2227","3","23","1","56","1","1581423094","1581422796","149","[46,61,24]","107.2"
"221","2255","3","23","1","15","1","1581423096","1581422796","149","[23,76,59,53,32,22,31,16,97,47,37,27,91,54]","110.4"
"222","2297","3","23","1","43","1","1581423110","1581422796","149","[46,17]","217.4"
"223","2295","3","23","1","3","1","1581423028","1581422796","149","[76,47,25,64,46,98,35,78,15,81,94,2,16,17,63,54,96,4,67]","155.5"
"224","2245","3","23","1","19","1","1581423117","1581422796","149","[1,41,67,24,30,54,16,23,34,55,79,36,49,60,22,66,11,92,18,28,46,43,4,77,29,10,47,52,20,83,14,12,40,17]","-324.4"
"225","2228","3","23","1","2","1","1581423107","1581422796","149","[16,35,17]","217.4"
"226","2249","3","23","1","92","1","1581423116","1581422796","149","[83,19,94,86,82,53,76,17,47]","63.2"
"227","2262","3","23","1","9","1","1581423113","1581422796","149","[27,65,60,40,16,24,34,29,17,46]","-24.2"
"228","2213","3","23","1","33","1","1581423113","1581422796","149","[72,76,78,23,35,66,37,38,82,13,32,98,39,46,17,77,71,88,93,57,14]","65.4"
"229","2279","3","23","1","34","1","1581423114","1581422796","149","[8,38,47,23,13,16,99,21,40,37,96,56,82,46,95,86,66,4,60,9,27,59,6,1,81,91,74,77,10,20,31,29,64,24]","-144.3"
"230","2280","3","23","1","61","1","1581423119","1581422796","149","[46,36,72,15,88,84,31,96,5,56,20,86,25,99,47,77,60,54,32,76,82,26,43,42,95,64,4,65,24]","-162.8"
"231","2276","3","23","1","59","1","1581423114","1581422796","149","[23,86,81,17]","169.1"
"232","2237","3","23","1","42","1","1581423091","1581422796","149","[76,17,61,24,46,47,86,80,57,100,98]","240"
"233","2209","3","23","1","67","1","1581423119","1581422796","149","[46,36,56,48,8,45,2,32,43,30,71,68,16]","158.2"
"234","2224","3","23","1","37","1","1581423088","1581422796","149","[47,86,17,16]","171.4"
"235","2247","3","23","1","50","1","1581423116","1581422796","149","[79,84,15,98,52,66,75,49,51,93,43,90,88,86,72,25,22,33,92,76,2,44,53,12,94]","27.5"
"236","2258","3","23","1","25","1","1581423119","1581422796","149","[23,88,94,49,30,17,99,93,90,24,52]","-40.7"
"237","2282","3","23","1","66","1","1581423110","1581422796","149","[67,37,76,44,46,5,95,25,35]","75.7"
"238","2232","3","23","1","95","1","1581423111","1581422796","149","[50,100,37,21,99,48,58,35,59,84,41,23,56,18,96,75]","95.4"
"239","2293","3","23","1","47","1","1581423117","1581422796","149","[10,36,88,56,82,12,46,18,31,92,89,59,40,16,14,20,60,1,74,51]","34.6"
"240","2226","3","23","1","78","1","1581423119","1581422796","149","[2,66,44,57,84,83,58,53,23,76,36]","2.7"
"241","2259","3","23","1","98","1","1581423105","1581422796","149","[80,76,45,57,35,46,58,42]","156.4"
"242","2253","3","23","1","94","1","1581423118","1581422796","149","[85,17,92,12,69,90,52,73,23,58,88,26,72,96,50]","-213"
"243","2283","3","23","1","68","1","1581423119","1581422796","149","[40,37,99,66,17,75,79,93,22,32,30,57,89,16,63,58,72]","-19.4"
"244","2288","3","23","1","87","1","1581423099","1581422796","149","[32,79,7,89,95,53,17,75,100,24]","20.6"
"245","2240","3","23","1","60","1","1581423118","1581422796","149","[10,18,98,25,36,74,54,90,52,7,72,4,26,50,8,33,63,35,71,44,6,80,61,89,30,19,66,84,38,70,27,93,100,64,77,43,17,58,67,9,69,29,34,24,16,91,20,97,41,76,83,46,92,12,1,11,49,42,31,79,68]","-226.1"
"246","2267","3","23","1","18","1","1581423114","1581422796","149","[67,20,69,23,47]","98.3"
"247","2243","3","23","1","51","1","1581423108","1581422796","149","[18,35,24]","185.5"
"248","2252","3","23","1","30","1","1581423104","1581422796","149","[17]","217.4"
"249","2201","3","23","1","73","1","1581423116","1581422796","149","[17,66,86,23,85,88,75,31,12]","116.2"
"250","2289","3","23","1","10","1","1581423113","1581422796","149","[25,43,37,18,76,84,92,81,44,74,70,46,1,29,3,6]","32.6"
"251","2260","3","23","1","29","1","1581423086","1581422796","149","[98,38,10,1,17,93,7,79,67,64,19,80,11,24,60,61,4,27,9,69,52,3,68]","-395.1"
"252","2274","3","23","1","85","1","1581423114","1581422796","149","[69,21,56,88,94,68,86,25,70,36,99,59,84,37,77,95,83,91,28,63,100,26,75,23,61,46,73,18,98,79,14,42,24,52,17,50,72]","-4.4"
"253","2271","3","23","1","69","1","1581423085","1581422796","149","[97,1,8,48,85,99,47,11,77,86,16,13,21,82,39,25,27,18,95,43,67,22,44,53,76,32,59,2,78,71,96,84,100,17,72,23,34,87,89,80,12,50,52,54,94,7,58,29]","-131.1"
"254","2223","3","23","1","7","1","1581423114","1581422796","149","[57,67,80,25,99,23,20,46,66,15,78,40,13,90,14,86,70,51,28,76,53,50,84,98,54,82,39,74,35,58,71,21,97,75,96,5,17,2,38,95]","365.5"
"255","2246","3","23","1","16","1","1581423101","1581422796","149","[8,38,22,18,30,6,77,56,12,98,59,9,97,63,43,55,37,68,15,46,91,81]","-103.9"
"256","2239","3","23","1","79","1","1581423117","1581422796","149","[33,44,90,17,100,47,62,87]","139.9"
"257","2296","3","23","1","11","1","1581423113","1581422796","149","[70,23,47,54,30,55,86,43,69,27,44,32,6,31,78,24]","43.7"
"258","2281","3","23","1","45","1","1581423085","1581422796","149","[27,17,67,24]","226"
"259","2264","3","23","1","40","1","1581423113","1581422796","149","[18,6,19,77,46,49,13,75,62,91,71,9,14,1,4,98,11,29,42,12,99]","-16.6"
"260","2284","3","23","1","88","1","1581423116","1581422796","149","[100,63,75,85]","100.2"
"261","2272","3","23","1","65","1","1581423112","1581422796","149","[17,9,24,86,61,100,41,76,1,7,51,92,22,75,11,89]","-98.8"
"262","2261","3","23","1","58","1","1581423114","1581422796","149","[52,66]","172.4"
"263","2278","3","23","1","36","1","1581423106","1581422796","149","[80,78,5,82,2,44,23,53,39,17,33]","212.8"
"264","2203","3","23","1","35","1","1581423118","1581422796","149","[15,40,78,13,91,20,17,8]","139"
"265","2263","3","23","1","86","1","1581423112","1581422796","149","[70,51,88,71,23,25,91,36,56,21,10,75,95,14,20,96]","133.5"
"266","2242","3","23","1","46","1","1581423118","1581422796","149","[75,54,57,80,45,6,92,51,35,99,69,94,2,48,23,88,91,15,49,29,9]","115.7"
"267","2285","3","23","1","26","1","1581423112","1581422796","149","[68,90,50,20,86,93,72,100,85,52,17,23,88]","66.2"
"268","2217","3","23","1","12","1","1581423115","1581422796","149","[98,32,55,11,99,43,71,69,80,94,86,1,77,15,39,95,75,70,97,54,3]","-78.6"
"269","2294","3","23","1","5","1","1581423043","1581422796","149","[38,25,32,15,6,70]","154.7"
"270","2207","3","23","1","44","1","1581423113","1581422796","149","[100,17,20,58,98,66,5,78]","247.5"
"271","2287","3","23","1","81","1","1581423113","1581422796","149","[71,97,3,46,91,32,66,53,39,40,47,15,13,5,21,27,31,54,82,59]","-31.9"
"272","2266","3","23","1","89","1","1581423100","1581422796","149","[71,40,49,17,87]","87.5"
"273","2233","3","23","1","84","1","1581423058","1581422796","149","[17]","217.4"
"274","2298","3","23","1","13","1","1581423092","1581422796","149","[27,86,40,91,47,82,10,46,64]","14.6"
"275","2292","3","23","1","75","1","1581423118","1581422796","149","[71,36,73,10,26,61,47,41,39,63,21,69,100,65,51,74,86,85,95,12]","-34"
"276","2265","3","23","1","82","1","1581423116","1581422796","149","[16,23,13,71,99,2,79,12,95,46,66,86,77,10,40,4,14,15,78]","60.5"
"277","2275","3","23","1","48","1","1581423117","1581422796","149","[90,58,69,96,25,84,87,39,68,63,2,98,72]","101.5"
"278","2300","3","23","1","32","1","1581423118","1581422796","149","[86,14,17,23,81]","169.1"
"279","2221","3","23","1","90","1","1581423117","1581422796","149","[51,67,66,24,86]","185.5"
"280","2244","3","23","1","52","1","1581423112","1581422796","149","[17,5,85,50,22,43,2,95,76,40,67,20,96,99,61,70,24,7,37,30,72,84,25,12,23,8,78,32,18,19,51,71,94,75,97,33,42,69,58,83,79,4,29,27,49]","-237.1"
"281","2225","3","23","1","91","1","1581423095","1581422796","149","[78,57,56,33,92,13,71,27,66,17,79,88]","131.3"
"282","2286","3","23","1","1","1","1581423104","1581422796","149","[24,19,34,69,60,17,10,41,65,12,29,20,40,47]","-81.3"
"283","2291","3","23","1","70","1","1581423117","1581422796","149","[48,37,21,82,80,59,15,78,13,40,95,96,56,97,33,17,32,58,63,2,66,67,84,8,38]","217.4"
"284","2202","3","23","1","8","1","1581423107","1581422796","149","[35,17]","139"
"285","2234","3","23","1","21","1","1581423102","1581422796","149","[29,17]","217.4"
"286","2210","3","23","1","41","1","1581423118","1581422796","149","[18,24,19,49,1,82,33,6,16,75,12,40,79,77,55,47,46,10,31,86,23,34,35,8,37,4,26,100,92,61,53,69,88,2,72,91,76,80,84,68,65,95,85,60,36,78,17,38,66,52,73,50,94,56,43,57]","-75.1"
"287","2231","3","23","1","38","1","1581422840","1581422796","149","[7,90]","150.7"
"288","2269","3","23","1","23","1","1581423118","1581422796","149","[8,38,79,47,80,40,84,37,66,56,35,96,61,88,98,50,48,58,83,85,75,77,12]","167.5"
"289","2205","3","23","1","28","1","1581423119","1581422796","149","[84,17,67]","217.4"
"290","2222","3","23","1","72","1","1581423119","1581422796","149","[48,8,37,26,61,23,88,68,85,50,41,24,53,17,60,94,25,69,33]","-332.3"
"291","2220","3","23","1","74","1","1581423096","1581422796","149","[76,43,24,15]","185.5"
"292","2268","3","23","1","22","1","1581422982","1581422796","149","[52,31,14,17,13,38]","141.5"
"293","2206","3","23","1","99","1","1581423118","1581422796","149","[96,86,36,56,17,23,98,12,25,68]","27.2"
"294","2238","3","23","1","14","1","1581423115","1581422796","149","[8,51,67,66,97,54,58,11,49,78,21,24]","185.5"
"295","2216","3","23","1","77","1","1581423107","1581422796","149","[81,46,91,17,33,24,50,86]","73.2"
"296","2218","3","23","1","57","1","1581422987","1581422796","149","[17]","217.4"
"297","2236","3","23","1","53","1","1581423117","1581422796","149","[76,84,80,17]","217.4"
"298","2204","3","23","1","55","1","1581423116","1581422796","149","[19,17,40,47,34,20,67,35,16]","99.9"
"299","2256","3","23","1","49","1","1581423119","1581422796","149","[6,23,10,86,93,21,83,66,52,37,4,25,97,89,82,41]","-103"
"300","2230","3","23","1","63","1","1581423118","1581422796","149","[8,91,36,44,76,7,58,74,86,34,78,27,68,17,100,88,23]","86"
"301","2214","4","23","1","75","1","1581423317","1581423255","323","[65,17,41]","86"
"302","2223","4","23","1","7","1","1581423321","1581423255","323","[72,76,58,79,44,65,95,73,20,69,10,28,68,29,52,2,12,49,25,77,70,33,16,62,26,1,90,30,91,84]","222.1"
"303","2293","4","23","1","97","1","1581423320","1581423255","323","[99,90,54,13]","51.4"
"304","2257","4","23","1","63","1","1581423321","1581423255","323","[99,77,21,78,98,57,67,6,26,55,53,80,83,59]","-105.6"
"305","2255","4","23","1","99","1","1581423318","1581423255","323","[1,48,97,41,60]","157.3"
"306","2254","4","23","1","76","1","1581423321","1581423255","323","[87]","160.5"
"307","2229","4","23","1","24","1","1581423316","1581423255","323","[76,87,98]","160.5"
"308","2215","4","23","1","51","1","1581423319","1581423255","323","[25,80,46,100,50,37,24,63,1]","105.5"
"309","2280","4","23","1","46","1","1581423318","1581423255","323","[72,15,25,36,90,47,79,64,84,71,83,100,68,62,44,33,91,49,34,56,50,98,73]","-5.5"
"310","2263","4","23","1","93","1","1581423320","1581423255","323","[83,57,70,24,27,49,77,84,88,65,76,71,21]","47.5"
"311","2211","4","23","1","1","1","1581423321","1581423255","323","[98,89,53,39,97,99,41,9,31,38,50,30,28,60,6,55,90,49,25,18,7,88,12,3,40,29,42,86,44,82,84,19,62,92,74,59,75,83,91,15,10,13,68]","1405.9"
"312","2269","4","23","1","90","1","1581423320","1581423255","323","[8,99,22,66,32,69,56]","0"
"313","2290","4","23","1","94","1","1581423321","1581423255","323","[18,8,17,22,67,14]","83.7"
"314","2259","4","23","1","59","1","1581423317","1581423255","323","[72,36,25,35,87,74,63,24,41,17,38,21,55]","-67.2"
"315","2252","4","23","1","17","1","1581423318","1581423255","323","[94,74,75,27,6,89,86,3,72,38]","125.4"
"316","2212","4","23","1","39","1","1581423320","1581423255","323","[8,1,80,9]","120.3"
"317","2249","4","23","1","43","1","1581423319","1581423255","323","[80,69,37,30,73,90,100,86]","21.3"
"318","2283","4","23","1","41","1","1581423312","1581423255","323","[100,24,64,38,30,94,75,19,2,1,50,9,59]","50.6"
"319","2284","4","23","1","71","1","1581423321","1581423255","323","[91,88,89]","186.8"
"320","2233","4","23","1","31","1","1581423309","1581423255","323","[1,16,38]","97.2"
"321","2279","4","23","1","30","1","1581423321","1581423255","323","[85,41,49,43,61,36,59,77,22,33,90,66,69,83]","-5.6"
"322","2201","4","23","1","40","1","1581423319","1581423255","323","[70,93,1,9,13,24]","107.9"
"323","2226","4","23","1","89","1","1581423320","1581423255","323","[78,1,17,99,86,48,50,97,76,87,54,71,38]","185"
"324","2289","4","23","1","22","1","1581423270","1581423255","323","[85,81,8]","20"
"325","2224","4","23","1","13","1","1581423320","1581423255","323","[70,4,40,80]","46.3"
"326","2261","4","23","1","65","1","1581423283","1581423255","323","[70]","148.9"
"327","2230","4","23","1","86","1","1581423319","1581423255","323","[17,37,100,78,57,20,43,55,83,67,1,89]","466.5"
"328","2272","4","23","1","88","1","1581423319","1581423255","323","[71,35,98,94,64,37,1,96,87,2,93,80,4,17]","166.3"
"329","2244","4","23","1","64","1","1581423277","1581423255","323","[44,15,36,100]","147.7"
"330","2227","4","23","1","91","1","1581423257","1581423255","323","[71]","110.7"
"331","2246","4","23","1","32","1","1581423316","1581423255","323","[8,38,82,85,60,87]","80"
"332","2237","4","23","1","5","1","1581423311","1581423255","323","[37,76,58,98,90,4,66,74,38]","56.9"
"333","2270","4","23","1","34","1","1581423320","1581423255","323","[64,31,84,25,90,39,80,59,6,46]","133.6"
"334","2242","4","23","1","28","1","1581423321","1581423255","323","[25,80,49,79,96,81,11,63,45,31,24]","132.7"
"335","2210","4","23","1","42","1","1581423300","1581423255","323","[72,79,97,24,66,37,18,83,46,38,28,1]","3.2"
"336","2235","4","23","1","70","1","1581423320","1581423255","323","[57,60,13,21,48,40,77,93,87,7,95,29,65,28,68,49,25,3,16,12,84,91,26,1,37,66,8,92,94,35,82,27,34,72,22]","753.9"
"337","2203","4","23","1","87","1","1581423320","1581423255","323","[100,48,8,21,74,58,89,76,93,70,96,94,59,2,38,47,6,99,35,81,24,25,33,61,88,54,64,66,49,11,23,36]","569.9"
"338","2276","4","23","1","14","1","1581423321","1581423255","323","[79]","135.5"
"339","2262","4","23","1","52","1","1581423279","1581423255","323","[72,7]","79"
"340","2241","4","23","1","69","1","1581423320","1581423255","323","[74,14,56]","152.4"
"341","2250","4","23","1","20","1","1581423321","1581423255","323","[86,81,62,50,60,83,92,66,7,10,65,73,23,2,25,49,44,26,29,95,33,3,56,53,31,54,97,99,13,84,19,14,91]","35.6"
"342","2281","4","23","1","98","1","1581423321","1581423255","323","[46,63,100,7,96]","-14"
"343","2232","4","23","1","35","1","1581423315","1581423255","323","[72,15,31,18,74,12,3,16,65,66,49,56]","82.4"
"344","2209","4","23","1","48","1","1581423321","1581423255","323","[97,82,87,89,96,76,54,99,12]","-32.8"
"345","2208","4","23","1","82","1","1581423321","1581423255","323","[84,75,48,74,85,58,32,54,19,66,26,35,49,56,27,9,31,1,11,70,86,100,41,14,3,52,16]","429.2"
"346","2266","4","23","1","95","1","1581423317","1581423255","323","[100,70]","118.7"
"347","2292","4","23","1","61","1","1581423299","1581423255","323","[19,18,23,11,87]","96.4"
"348","2207","4","23","1","50","1","1581423309","1581423255","323","[46,1,30,6,90,76]","164.7"
"349","2251","4","23","1","16","1","1581423321","1581423255","323","[7,31,24]","76.4"
"350","2264","4","23","1","25","1","1581423320","1581423255","323","[83]","0"
"351","2248","4","23","1","60","1","1581423319","1581423255","323","[15,98,56,1]","166.4"
"352","2271","4","23","1","83","1","1581423320","1581423255","323","[71,75,84,36,73,44,69,35,63,86]","48.8"
"353","2294","4","23","1","21","1","1581423320","1581423255","323","[49,87,38,93]","53"
"354","2299","4","23","1","62","1","1581423318","1581423255","323","[57]","131"
"355","2239","4","23","1","57","1","1581423319","1581423255","323","[70,10,80,86,33,92,69,44,68,62,25,95,56,16,91,29]","401.3"
"356","2295","4","23","1","55","1","1581423320","1581423255","323","[84,76,64,24,1,69,49,63,95,73,83,93,86,47,15]","68"
"357","2240","4","23","1","38","1","1581423318","1581423255","323","[79,80,64,24,90,36,76,84,31,45,1,41,39,74,81,87,30,21,42,67,19,28,23,5,17,86,2,98,27]","258.2"
"358","2300","4","23","1","45","1","1581423321","1581423255","323","[38,87]","157.9"
"359","2245","4","23","1","23","1","1581423313","1581423255","323","[8,49,38,19,27,61,20,81,24,87,86]","-30.7"
"360","2243","4","23","1","19","1","1581423310","1581423255","323","[61,28]","123.7"
"361","2277","4","23","1","8","1","1581423318","1581423255","323","[97,22,16,70]","128.6"
"362","2285","4","23","1","44","1","1581423319","1581423255","323","[36,45,18,9]","128.5"
"363","2260","4","23","1","58","1","1581423313","1581423255","323","[98,90,5,48,19,81,82,11,87,7,47,21,63]","-41.3"
"364","2297","4","23","1","29","1","1581423301","1581423255","323","[70]","148.9"
"365","2202","4","23","1","27","1","1581423320","1581423255","323","[17,76,83,57,82,38,70,23]","12.2"
"366","2247","4","23","1","80","1","1581423313","1581423255","323","[57,71,63,84,24,38,51,28,88,39]","189.4"
"367","2274","4","23","1","54","1","1581423321","1581423255","323","[48,19,61,8,99,97,60,89,4,76,27,18,39,13,40,70]","8.1"
"368","2256","4","23","1","4","1","1581423319","1581423255","323","[8,83,12,13,77,19,39,67,44,37,16,3,5,32,6,15,56,88,54,97,23]","14.8"
"369","2228","4","23","1","36","1","1581423310","1581423255","323","[59,38,85,74,83,77,87,46]","66"
"370","2238","4","23","1","2","1","1581423320","1581423255","323","[9,80,22,49,87,41,24,86,100,88,30,39]","-18.2"
"371","2217","4","23","1","79","1","1581423315","1581423255","323","[45,14,38,35,24,81,96,11,84,60,42,47,7,62,46,56,29,73,25,63,80,64,31]","-38.1"
"372","2282","4","23","1","73","1","1581423317","1581423255","323","[46,79,20,31,100,38,67]","-15.9"
"373","2213","4","23","1","81","1","1581423290","1581423255","323","[75,36,21,58,72,22,57]","57.9"
"374","2275","4","23","1","92","1","1581423281","1581423255","323","[71,15,45,57,20]","71.3"
"375","2204","4","23","1","67","1","1581423318","1581423255","323","[46,63,11,86]","82.3"
"376","2296","4","23","1","56","1","1581423302","1581423255","323","[82]","153.7"
"377","2231","4","23","1","33","1","1581423255","1581423255","323","[]","0"
"378","2298","4","23","1","26","1","1581423299","1581423255","323","[57,70]","148.9"
"379","2218","4","23","1","6","1","1581423314","1581423255","323","[26,72,98,24,25,1,27,87,17]","66.1"
"380","2288","4","23","1","15","1","1581423300","1581423255","323","[34,1]","166.4"
"381","2291","4","23","1","9","1","1581423314","1581423255","323","[100,22,8,49,96,1,67,6,91,25,62,3,44,56]","194.1"
"382","2222","4","23","1","96","1","1581423309","1581423255","323","[25,98,19,79,48,87,97,88,9,69]","-37.1"
"383","2278","4","23","1","68","1","1581423321","1581423255","323","[15,84,30,70,87,1]","262.1"
"384","2225","4","23","1","11","1","1581423318","1581423255","323","[58,25,79,19,82,87,61]","-48.4"
"385","2206","4","23","1","18","1","1581423317","1581423255","323","[25,1,94,61]","137.5"
"386","2286","4","23","1","100","1","1581423313","1581423255","323","[87,30,86,41,64,43,46,51,2,98,9,95,73,82]","294.8"
"387","2234","4","23","1","77","1","1581423311","1581423255","323","[36,85,21]","68.4"
"388","2205","4","23","1","53","1","1581423321","1581423255","323","[1,21]","166.4"
"389","2273","4","23","1","85","1","1581423320","1581423255","323","[75,36,63,22,30,2,82,77,32,87,66,49]","-19.1"
"390","2287","4","23","1","84","1","1581423309","1581423255","323","[68,65]","127.9"
"391","2268","4","23","1","49","1","1581423320","1581423255","323","[61,32]","0"
"392","2267","4","23","1","78","1","1581423314","1581423255","323","[86,29,84,49]","149.7"
"393","2253","4","23","1","72","1","1581423320","1581423255","323","[37,42,35,81,52,59,74,46,67,7,38,17,16,47]","-124.2"
"394","2265","4","23","1","66","1","1581423315","1581423255","323","[8,32,43,30,5,85,69]","9"
"395","2219","4","23","1","47","1","1581423320","1581423255","323","[58,84,76,64,79,36,25,35,46,30,72,22,50,38,55,71,68,26]","-82.1"
"396","2216","4","23","1","37","1","1581423319","1581423255","323","[72,74,66,86,81,43,57,70]","27.3"
"397","2221","4","23","1","74","1","1581423318","1581423255","323","[17,8,37,97,35,75,38,82,87,69,59,36,34,60,72,1,9,5,96,100,89]","61.2"
"398","2258","4","23","1","3","1","1581423311","1581423255","323","[98,26,76,17,14,71,45,83,56,19,44]","141.5"
"399","2220","4","23","1","10","1","1581423307","1581423255","323","[57]","131"
"400","2236","4","23","1","12","1","1581423315","1581423255","323","[76,1]","166.4"
"401","2299","5","23","1","15","1","1581423929","1581423701","66","[22,60,33]","148.5"
"402","2254","5","23","1","50","1","1581423930","1581423701","66","[65]","207"
"403","2242","5","23","1","37","1","1581423940","1581423701","66","[25,24,32,96,19,80,16,58,66,68,100,97,26,55,53,13,42,90,43]","91.6"
"404","2244","5","23","1","12","1","1581423939","1581423701","66","[72,8,76,64,47,28,30,38,99]","113.4"
"405","2261","5","23","1","86","1","1581423851","1581423701","66","[65]","207"
"406","2250","5","23","1","92","1","1581423939","1581423701","66","[68,62,65,83,20,22,39,87,33,82]","-51"
"407","2236","5","23","1","19","1","1581423882","1581423701","66","[8,65]","207"
"408","2234","5","23","1","94","1","1581423913","1581423701","66","[8,65,7]","182.3"
"409","2295","5","23","1","3","1","1581423940","1581423701","66","[76,37,72,87,86,50,2,30,41,78,81,84,8,54,46,21,75,4,65,25,22]","94.3"
"410","2238","5","23","1","76","1","1581423936","1581423701","66","[80,69,70,93,63,54]","64.6"
"411","2209","5","23","1","81","1","1581423940","1581423701","66","[15,83,80,27,69,62,44]","180.4"
"412","2235","5","23","1","39","1","1581423940","1581423701","66","[8,49,1,100,37,21,77,16,53,68,86,50,75,82,40,42,30,11,29,56,61,2,66,35,54,34,5,90,14,83,46,36,87,24,10,17,32,67,47,43,85,18,81,70,71,92,3,13,93,98,72,65,99,33,12,94,41,51,31,26,19,22,9,59,25,64,58,60,4,23,15,76,80]","-460.2"
"413","2294","5","23","1","26","1","1581423937","1581423701","66","[65]","207"
"414","2203","5","23","1","77","1","1581423940","1581423701","66","[8,50,84,61,21,60,66,23,70,44,35,37,27,4,5,64,22,2,48,87,65,96,78,39]","-67.8"
"415","2224","5","23","1","67","1","1581423935","1581423701","66","[39,60,25]","111.2"
"416","2212","5","23","1","9","1","1581423940","1581423701","66","[80,65,21,86,1,51,47,8,5,13,96]","92.8"
"417","2241","5","23","1","70","1","1581423938","1581423701","66","[31,83,72,50,46,78]","184"
"418","2284","5","23","1","80","1","1581423940","1581423701","66","[36,55,65,90,74]","129.5"
"419","2277","5","23","1","98","1","1581423937","1581423701","66","[8,1,42,94,80,3,68,9,11,78,35,83,87]","108.4"
"420","2201","5","23","1","99","1","1581423918","1581423701","66","[38,19,64]","141.8"
"421","2229","5","23","1","66","1","1581423939","1581423701","66","[80,30,29,65,20,25,50]","214.5"
"422","2237","5","23","1","52","1","1581423922","1581423701","66","[72,84,58,98,83,65,80,35,37,51,31,79,57,33,81,85,21,47,23,69]","123.2"
"423","2263","5","23","1","38","1","1581423938","1581423701","66","[15,31,9,67,6,98,44,35,51,32,25,47,10,28,72,24,8,57,30,21,60,80,63,99]","104.9"
"424","2214","5","23","1","58","1","1581423918","1581423701","66","[65,44,4]","242.3"
"425","2270","5","23","1","100","1","1581423937","1581423701","66","[61,35,47,41,8,62,65,13]","207"
"426","2280","5","23","1","13","1","1581423927","1581423701","66","[47,25,80,75,26,45,16,2,8,9,97,41,96,30,46,76,5,99,70,31,84,19,57,23,86,27,21,14,1,54,33]","16.4"
"427","2215","5","23","1","10","1","1581423940","1581423701","66","[19,32,79,25,74,98,22,24,49,42,72,53,83,36,99,9,33,64,28,88,65,51,89,82,73,71,14,29,39,30,47,90,95,38]","-363.3"
"428","2249","5","23","1","95","1","1581423909","1581423701","66","[18,71,88,25,10,69,64,13,65,24,7,27,94,83,36]","192.1"
"429","2251","5","23","1","44","1","1581423937","1581423701","66","[60,83,66,54,35,37]","180.4"
"430","2259","5","23","1","91","1","1581423936","1581423701","66","[3,40,30]","164.5"
"431","2243","5","23","1","2","1","1581423932","1581423701","66","[76,50,64]","191.7"
"432","2275","5","23","1","75","1","1581423904","1581423701","66","[28,63,6,33,85,38]","89.7"
"433","2239","5","23","1","34","1","1581423909","1581423701","66","[50,81,83,41,99,96,5,19,47,86,33,27,46,51,57,31,32,84,76,54,85,66,35,65,64]","226"
"434","2246","5","23","1","6","1","1581423940","1581423701","66","[9,18,46,47,67,14,85,80,64,65,87,45,86]","66.9"
"435","2278","5","23","1","53","1","1581423940","1581423701","66","[76,35,30,86,41,5,47,61,32,51,33,8,81,31,23,65,59,87]","131.2"
"436","2273","5","23","1","64","1","1581423937","1581423701","66","[72,36,24,17,3,30,10,62,2,29,79,43,94,13,42,28,26,11,19,57,100,48,82,88,40,49,23,39,41,81,83,4,1,77,50,21,86,61,89,99,47,90,95,25,54,91,75,6,38,60,12,14,87,76,46,51,85,32,63,65,97,34,7,44,70,56,71]","1633"
"437","2230","5","23","1","71","1","1581423940","1581423701","66","[8,17,81,93,94,85,41,47,78,54,34,9,25,15,61,29,65,64]","64.4"
"438","2211","5","23","1","65","1","1581423887","1581423701","66","[15,2,56,87,48,42,24,67,35,23,17,58,9,61,36,5,97,7,27,92,74,57,53,59,46,55,3,91,38,89,99,64,26,21,8,81,86,1,32,52,39,12,13,51,41,25,79,68,4,11,77,88,70,31,96,90,18,85,6,34,100,73,95,82,33,10,78,43,20,47,40,28,75,16,63,30,84,76,94,19,49,72,60,29,45,22,37,44,98,83,66,71,50,54,93,80,62,69,14]","3161.1"
"439","2233","5","23","1","57","1","1581423934","1581423701","66","[27,8,64]","191.7"
"440","2206","5","23","1","11","1","1581423902","1581423701","66","[62,65]","207"
"441","2253","5","23","1","68","1","1581423937","1581423701","66","[85,39,46,92,26,22,45,100]","22.4"
"442","2262","5","23","1","46","1","1581423939","1581423701","66","[70,25,69]","71.1"
"443","2269","5","23","1","35","1","1581423935","1581423701","66","[8,19,60,37,54,16,51,27,9,26,86,79,31,1,2,96,41,50,20,94,28,83]","180.4"
"444","2252","5","23","1","18","1","1581423940","1581423701","66","[74,95,55,65]","56.6"
"445","2248","5","23","1","60","1","1581423939","1581423701","66","[64,4,5]","157.6"
"446","2228","5","23","1","90","1","1581423940","1581423701","66","[13,83,52,69,29,74,39,65,96,55,27,73,46,16,87,94,51,98,81,10,33,63]","-268.5"
"447","2222","5","23","1","48","1","1581423932","1581423701","66","[77,68,69,35,64,40,86,5,67,56,61,4]","-38.3"
"448","2289","5","23","1","89","1","1581423931","1581423701","66","[85,68,14,10,60,38,65,36,62,74,24]","-3.8"
"449","2227","5","23","1","21","1","1581423935","1581423701","66","[64]","191.7"
"450","2226","5","23","1","59","1","1581423940","1581423701","66","[22,9]","131.8"
"451","2300","5","23","1","31","1","1581423807","1581423701","66","[65]","207"
"452","2265","5","23","1","61","1","1581423936","1581423701","66","[37,85,12,42,8,78,98,21,51,2,67,5,86,19,96]","77.8"
"453","2210","5","23","1","73","1","1581423940","1581423701","66","[71,23,80,25,70,30,28,69,66,93,95,98,16,81,36,52,29,44,65,15,84,50,91,34,85,63,88,53,90,32,17,83,14,18,87,74,42,10,75,7,76,35,47]","-261.7"
"454","2290","5","23","1","1","1","1581423934","1581423701","66","[80,75,60,23]","137.4"
"455","2293","5","23","1","54","1","1581423937","1581423701","66","[8,1,21,12,66,4,41,81,62,76]","78.8"
"456","2281","5","23","1","97","1","1581423940","1581423701","66","[62,54,83,65,64,37,35,13,22]","235.9"
"457","2292","5","23","1","22","1","1581423911","1581423701","66","[72,26,98,32,53,44,76,97,45,59,4,3,92,9,51,77,35,79,96,20,25,86]","-86.4"
"458","2219","5","23","1","4","1","1581423938","1581423701","66","[51,58,76,37,16,24,35,38,60,47,21,72,48]","11.4"
"459","2272","5","23","1","29","1","1581423925","1581423701","66","[70,90,64,83,17,39,88,59,87,52,10,73,98,36,65,40]","-370.3"
"460","2216","5","23","1","49","1","1581423939","1581423701","66","[72,23,35,60,11,8,16,36,65]","255.5"
"461","2288","5","23","1","78","1","1581423934","1581423701","66","[27,72,5,33,99,32,59,65,8,61]","215.2"
"462","2260","5","23","1","14","1","1581423940","1581423701","66","[76,51,43,10,47,15,38,88,19,79,80,25,94,36,64,73,65,40,39]","-153.4"
"463","2217","5","23","1","7","1","1581423937","1581423701","66","[32,19,62,21,2,11,44,30,66,31,71,81,12,84,94,98,72,75,15,80,59,93,95,54,76,42,69]","22.3"
"464","2287","5","23","1","41","1","1581423924","1581423701","66","[27,34,76]","157.9"
"465","2274","5","23","1","56","1","1581423925","1581423701","66","[59,48,85,37,4,53,60,44,66,49,77,50,86,65,61,58,21,13,35,96,23,82,11,39,40,42,72,87,51,9,64]","-141.1"
"466","2213","5","23","1","20","1","1581423937","1581423701","66","[25,71,100,75,76,49,86,47,8,65,4,98]","207"
"467","2256","5","23","1","88","1","1581423940","1581423701","66","[85,4,70,38,28,10,95,65,59,17]","-17.8"
"468","2208","5","23","1","40","1","1581423936","1581423701","66","[100,1,21,85,75,47,99,43,15,8,37,44,61,41,96,14,12,54,46,50,56,45,2,64,19,62,24,79,94,35,27,84,57,77,86,82,60,9,11,23,67,48,68,70,39,29,36,26,87,51,28,91,65,90,89,73,3,5,92,4,58,49]","-214.8"
"469","2282","5","23","1","25","1","1581423935","1581423701","66","[80,24,4,86,53,6,67,31,99,11,18,66,76,41,22]","-23"
"470","2268","5","23","1","27","1","1581423935","1581423701","66","[53,2,55,62,29,42]","140.5"
"471","2264","5","23","1","5","1","1581423939","1581423701","66","[40,11,50,35,99,47,28,87,43,17,42,72,4,1]","98.2"
"472","2276","5","23","1","32","1","1581423924","1581423701","66","[36,65]","207"
"473","2207","5","23","1","85","1","1581423939","1581423701","66","[37,22,81,66,38,25,46,64,1,16]","191.7"
"474","2232","5","23","1","93","1","1581423935","1581423701","66","[98,25,15,31,70,19,37,84,55,85,69,8,91,83,54,44,7]","121.8"
"475","2279","5","23","1","33","1","1581423933","1581423701","66","[10,47,75,8,41,96,61,5,51,38,6,25,65,85,4,32,99,57,15,54,36]","320.8"
"476","2220","5","23","1","36","1","1581423937","1581423701","66","[84,18,25,28,88,55,62,93,85,2,96,53,38,31,34,76,1,99,60,5,42,41,3,78,6,71,50,82,21,19,8,51,95]","164.9"
"477","2218","5","23","1","79","1","1581423894","1581423701","66","[65]","207"
"478","2225","5","23","1","42","1","1581423919","1581423701","66","[64,65]","142.7"
"479","2285","5","23","1","69","1","1581423928","1581423701","66","[76,73,80,58,15,4,17,90,19,46,66,37,71,62,52,98,95]","83"
"480","2286","5","23","1","63","1","1581423873","1581423701","66","[75,64,80,83,6,74,94,69,28,36]","91"
"481","2298","5","23","1","96","1","1581423934","1581423701","66","[45,20,3,29,65,67,78,77,68,31,13,61,22,19,86,9,59]","2"
"482","2291","5","23","1","23","1","1581423935","1581423701","66","[8,1,27,100,51,25,57,86,50,5,79,9,35,49,19,94,47,4,12,64,43,38,61,16]","276"
"483","2283","5","23","1","43","1","1581423940","1581423701","66","[100,35,38,64,36,30,65,28,51,39,40]","-9.8"
"484","2266","5","23","1","51","1","1581423887","1581423701","66","[10,65]","132"
"485","2297","5","23","1","47","1","1581423927","1581423701","66","[10,57,64,60,21]","121.4"
"486","2205","5","23","1","72","1","1581423939","1581423701","66","[64]","191.7"
"487","2231","5","23","1","8","1","1581423701","1581423701","66","[]","0"
"488","2255","5","23","1","30","1","1581423937","1581423701","66","[18,25,76,64,10,14,28,36,12,49]","51.1"
"489","2258","5","23","1","16","1","1581423936","1581423701","66","[8,79,93,81,42,49,57,25,41,23,32]","77"
"490","2296","5","23","1","24","1","1581423930","1581423701","66","[64,49,28,89,37,10,13,25]","13.7"
"491","2204","5","23","1","82","1","1581423931","1581423701","66","[1,8,10,99,35,9,96,65]","132"
"492","2247","5","23","1","17","1","1581423935","1581423701","66","[18,80,64,76,58,84,79,88,55,83,20,2,65,87,66,78,98,81,36,91,39,71]","-208.6"
"493","2271","5","23","1","74","1","1581423893","1581423701","66","[24,46,63,80,76,23,35,90,94,71,18,26,36,65,17,68,79,57,78,15,16,10,98,83,8,89,38,6]","-247.7"
"494","2202","5","23","1","28","1","1581423940","1581423701","66","[25,47,15,74,6,65,73,24]","73.9"
"495","2245","5","23","1","45","1","1581423939","1581423701","66","[49,8,11,91,96,56,4,58,22,59,40,55,31,51,35,2,79,53,83,68,77,78,87]","-138.8"
"496","2221","5","23","1","55","1","1581423939","1581423701","66","[79,59,58,4,81,20,42,65,85,16,50,96,24,100,29,45]","144.4"
"497","2257","5","23","1","87","1","1581423940","1581423701","66","[93,38,65,3,53,13,83,29,17,14,47,55,45,68,36,66,76,81,98,92,22,56,90,44,39,25,8,1,64,74,95,34,73,52,78,79,77,31,40,37,5,27,61,4,71,19,11,20,84,86,97,6]","-594.6"
"498","2223","5","23","1","62","1","1581423936","1581423701","66","[72,57,66,86,69,19,32,5,42,8,26,6,21,91,44,61,30,25,75,96,54,41,47,50,37,1,35,20,64,59,76,27]","436.9"
"499","2267","5","23","1","84","1","1581423932","1581423701","66","[8,65,32,70]","207"
"500","2240","5","23","1","83","1","1581423938","1581423701","66","[63,78,57,84,71,75,18,17,4,79,34,44,12,73,90,70,88,52,2,94,74,95,72,3,36,93,29,20,13,98,92,96,87,7,65,55,97,42,100,64,81,39,50,66,10,45,11,25,37,27,35]","310.6"
"501","2255","6","23","1","99","1","1581424239","1581424155","239","[37,83,8,39,96,71,48,32,42,17]","98"
"502","2262","6","23","1","68","1","1581424229","1581424155","239","[52,9]","93.3"
"503","2241","6","23","1","10","1","1581424239","1581424155","239","[21,97,20]","109.2"
"504","2214","6","23","1","2","1","1581424235","1581424155","239","[79,40,48,98]","153"
"505","2233","6","23","1","20","1","1581424232","1581424155","239","[79,10]","259.6"
"506","2257","6","23","1","100","1","1581424237","1581424155","239","[75,71,36,63,24,97,90,65,79,93,37,38,8,23,66,12,94,33,46,26,34,16,84,29,89,82,42]","591.9"
"507","2235","6","23","1","34","1","1581424236","1581424155","239","[100,49,8,38,1,85,59,47,71,24,61,82,63,13,25,9,60,36,27,15,98,67,52,54,83,7,97,65,29,79,33]","491.6"
"508","2211","6","23","1","33","1","1581424238","1581424155","239","[52,9,17,19,80,64,94,76,55,14,90,100,8,99,36,15,1,29,22,28,51,46,49,96,68,65,71,6,4,72,93,79,31,11,88,32,50,61,38,75,82,5,40,81,86,70,3,57,21,85,60,34,23,92,62]","619.5"
"509","2300","6","23","1","78","1","1581424238","1581424155","239","[79,42,97,73,86,14,82,55,94,96,49,48,68]","-3.5"
"510","2272","6","23","1","4","1","1581424238","1581424155","239","[70,46,76,79,97,58,77,72,65,64,90,33,51,75,62,95,45,42]","167.5"
"511","2240","6","23","1","65","1","1581424237","1581424155","239","[80,63,76,57,79,24,36,93,98,30,17,87,90,19,73,42,97,38,100,77,4,94,14,64,67,2,69,75,71,31,92,33,23,35,34,47,9,40,48,91,28,83,29]","1040.2"
"512","2219","6","23","1","98","1","1581424234","1581424155","239","[57,63,36,71,75]","145.5"
"513","2206","6","23","1","47","1","1581424234","1581424155","239","[37,65]","120.2"
"514","2207","6","23","1","21","1","1581424232","1581424155","239","[72,98,25,74,9,97,29]","33.2"
"515","2280","6","23","1","93","1","1581424230","1581424155","239","[79,46,24,63,75,15,31,44,65,77,39,92,89,96,9,33]","86.3"
"516","2251","6","23","1","82","1","1581424228","1581424155","239","[71,1,100,48,78,99,8,66,6,92,9,3]","53.1"
"517","2236","6","23","1","72","1","1581424238","1581424155","239","[24,63,15,57,4,98,1,60,48,96,36,19,52,51,83,9]","95.2"
"518","2246","6","23","1","46","1","1581424236","1581424155","239","[26,71,1,49,8,100,58,9,11,25,33,86,93,76,42]","-35.7"
"519","2295","6","23","1","58","1","1581424232","1581424155","239","[84,76,64,36,30,53,9,85,96,91,71]","122.8"
"520","2271","6","23","1","35","1","1581424239","1581424155","239","[72,19,31,25,97,41,61,42,95,48,9,1,15,49,96,68,71,54,36,39,14]","-49.4"
"521","2248","6","23","1","66","1","1581424229","1581424155","239","[37,13]","86.4"
"522","2252","6","23","1","97","1","1581424236","1581424155","239","[9,35,65,23,100,42,14,37,4,77,73,94,7,11,6,59,43,29,45,78,41,19,34,90,21]","564"
"523","2249","6","23","1","67","1","1581424238","1581424155","239","[64,16,62,7,34,95]","-61.1"
"524","2215","6","23","1","40","1","1581424239","1581424155","239","[18,72,98,27,5,64,65]","91"
"525","2242","6","23","1","89","1","1581424235","1581424155","239","[37,100,38,87,1,98,13,43,59,66,92]","105.9"
"526","2201","6","23","1","32","1","1581424217","1581424155","239","[1,49,25,88,52,29,10,72,51,33]","333.8"
"527","2263","6","23","1","73","1","1581424239","1581424155","239","[71,91,59,66,9,49,28,97,78,6,20,46]","97.9"
"528","2229","6","23","1","43","1","1581424239","1581424155","239","[80,76,72,24,94,97,37]","59.9"
"529","2254","6","23","1","31","1","1581424235","1581424155","239","[79,37,65]","74.8"
"530","2237","6","23","1","75","1","1581424237","1581424155","239","[94,76,93,77,100,86,98,4,65,70,62,89,8,66,92,39]","51.8"
"531","2290","6","23","1","18","1","1581424237","1581424155","239","[71,27,91,21,57,62,40]","81.3"
"532","2209","6","23","1","94","1","1581424239","1581424155","239","[25,36,100,97,26,77,73,70,14,91,6,46]","42.3"
"533","2265","6","23","1","14","1","1581424236","1581424155","239","[8,49,12,28,30,63,31,44,71]","0"
"534","2221","6","23","1","90","1","1581424232","1581424155","239","[75,42,67,98,66,9,65,69,100,33,94,28,20,22,25,4,37,16,45,47,2,97,26,19,87,73,21]","-159.3"
"535","2228","6","23","1","5","1","1581424234","1581424155","239","[58,16,76,40,56,49,61,64,62,33]","-12.2"
"536","2269","6","23","1","71","1","1581424239","1581424155","239","[1,63,31,72,23,42,65,94,24,28]","176"
"537","2260","6","23","1","16","1","1581424229","1581424155","239","[47,20,67,100,42,13,27,90,74,22,1]","-87.3"
"538","2239","6","23","1","8","1","1581424230","1581424155","239","[100,85,49,43,37,47,96,94,20,44,92,48,95,83,18]","60"
"539","2294","6","23","1","92","1","1581424237","1581424155","239","[98,8,65,71]","113.6"
"540","2277","6","23","1","38","1","1581424234","1581424155","239","[100,65]","109.9"
"541","2279","6","23","1","86","1","1581424235","1581424155","239","[63,3,6,78,91,49,15,73,14,81,46,75]","-14.1"
"542","2208","6","23","1","62","1","1581424239","1581424155","239","[18,25,98,72,36,57,63,75,40,80,42,29,67,41,96,4,17,45,95,5,1,16,83,65,90,35,33,61,55,85]","57.8"
"543","2213","6","23","1","77","1","1581424237","1581424155","239","[71,75,57,79,36,98,4,97,91]","-12.9"
"544","2259","6","23","1","17","1","1581424239","1581424155","239","[42,18,83,74,62]","26.1"
"545","2253","6","23","1","55","1","1581424238","1581424155","239","[8,48,1,71,37,24,33,7,53,60,78,49,45,31,51,83,89,46,69,85,74,87,50,88,80,3]","6.2"
"546","2238","6","23","1","59","1","1581424238","1581424155","239","[1,85,97,8,76]","169"
"547","2244","6","23","1","52","1","1581424233","1581424155","239","[48,24,1,22,32,96,89,92,83,51,45,49,9,68]","219.3"
"548","2270","6","23","1","56","1","1581424239","1581424155","239","[88,40,9]","119.1"
"549","2243","6","23","1","64","1","1581424237","1581424155","239","[76,72,15,36,42,30,47,67,13,4,41,87]","-9.1"
"550","2261","6","23","1","48","1","1581424239","1581424155","239","[65]","176"
"551","2224","6","23","1","57","1","1581424214","1581424155","239","[76,29]","97.9"
"552","2231","6","23","1","9","1","1581424237","1581424155","239","[97]","169"
"553","2230","6","23","1","41","1","1581424238","1581424155","239","[1,37,8,75,94,36,24,35,47,53,45,97,59,70]","42.9"
"554","2293","6","23","1","13","1","1581424238","1581424155","239","[64,76,8,49,12,38,1,37,57,43,34,66]","-7.8"
"555","2232","6","23","1","12","1","1581424224","1581424155","239","[1,8,38,18,49,100,47,59,82,2,86,4,63,79,77]","104.4"
"556","2227","6","23","1","39","1","1581424239","1581424155","239","[25,93]","141.2"
"557","2210","6","23","1","37","1","1581424214","1581424155","239","[24,72,15,31,8,38,93,47,100,74,85,17,63,76,90,97,41,55,29,13,43,1,99,42,66,83,73,89,40,22]","136.9"
"558","2203","6","23","1","7","1","1581424237","1581424155","239","[26,49,9,1,71,20,77,57,52,66,73,67,22]","71.7"
"559","2289","6","23","1","3","1","1581424233","1581424155","239","[85,83,29,6]","108.2"
"560","2250","6","23","1","74","1","1581424239","1581424155","239","[63,36,15,42,37,28,14,9,45,49,20,80,6,11,51,55,16,52,84,22,43,21,29,76,17]","-230.1"
"561","2264","6","23","1","49","1","1581424218","1581424155","239","[36,85,99,72]","0"
"562","2274","6","23","1","95","1","1581424223","1581424155","239","[1,72,35,53,64,62,4,42,67]","-49.6"
"563","2267","6","23","1","25","1","1581424217","1581424155","239","[29]","161.4"
"564","2212","6","23","1","30","1","1581424239","1581424155","239","[24,79,70,57,87]","153"
"565","2299","6","23","1","70","1","1581424189","1581424155","239","[4]","158.9"
"566","2287","6","23","1","15","1","1581424227","1581424155","239","[49,34,9]","157.7"
"567","2217","6","23","1","79","1","1581424229","1581424155","239","[98,31,93,94,65,30,42,4,25,28,2,86,14,20,12,44,77,78,100,45,81,89,73,43,13,24,9,49,96,50,21]","645.6"
"568","2234","6","23","1","96","1","1581424211","1581424155","239","[]","0"
"569","2226","6","23","1","60","1","1581424230","1581424155","239","[34]","157.7"
"570","2297","6","23","1","85","1","1581424233","1581424155","239","[15,55]","143.2"
"571","2202","6","23","1","42","1","1581424238","1581424155","239","[79,58,17,35,72,97,74,63,100,62,38,65,90,87,2,43,13,8,99,47,29,16,66,37,83,70,64]","0.5"
"572","2292","6","23","1","53","1","1581424229","1581424155","239","[76,72,98,36,41,17,95]","17.2"
"573","2282","6","23","1","1","1","1581424239","1581424155","239","[37,16,23,24,9,17,22]","88.6"
"574","2205","6","23","1","44","1","1581424231","1581424155","239","[42,79,94,17]","153"
"575","2284","6","23","1","50","1","1581424228","1581424155","239","[36,80,30,61,33,21]","88"
"576","2281","6","23","1","22","1","1581424226","1581424155","239","[76,33,90,7,37]","96.6"
"577","2225","6","23","1","83","1","1581424239","1581424155","239","[37,65]","120.2"
"578","2291","6","23","1","84","1","1581424229","1581424155","239","[100,85,1,48,24,96,11,61,9,21,58]","219.9"
"579","2266","6","23","1","24","1","1581424233","1581424155","239","[37]","160.5"
"580","2296","6","23","1","19","1","1581424221","1581424155","239","[7,65,69,52]","100.9"
"581","2298","6","23","1","45","1","1581424239","1581424155","239","[15,42,14,90,97,55,4,3]","-21.3"
"582","2256","6","23","1","51","1","1581424239","1581424155","239","[25,45,22,27,83,89,9,42,33,74,55,61,72]","-43.7"
"583","2283","6","23","1","54","1","1581424234","1581424155","239","[6]","124.8"
"584","2222","6","23","1","26","1","1581424238","1581424155","239","[100,49,8,21,17,11,46,95,1,94]","20.2"
"585","2204","6","23","1","80","1","1581424239","1581424155","239","[65,30,50,33,21,3,45,43]","19.6"
"586","2288","6","23","1","88","1","1581424210","1581424155","239","[56,33,32,96,92]","205.1"
"587","2273","6","23","1","29","1","1581424238","1581424155","239","[72,24,64,76,74,42,56,40,91,73,15,97,87,69,25,19,11,43,83,32,68,81,3,86,57,28,33,62,1,71,23,100,37,14,20,30,79,12,18,36,21,50,85,34,31]","286.5"
"588","2286","6","23","1","69","1","1581424213","1581424155","239","[19,23,90,29,55,17,65]","-49.2"
"589","2278","6","23","1","61","1","1581424239","1581424155","239","[45,31,34,15,76,21,19,83,68,89,35,51]","32.7"
"590","2216","6","23","1","6","1","1581424226","1581424155","239","[47,83,85,1,3,22,7,54,97,82,9,96,49,86]","116.8"
"591","2258","6","23","1","87","1","1581424238","1581424155","239","[90,25,15,71,43,24]","159.4"
"592","2247","6","23","1","11","1","1581424220","1581424155","239","[84,72,16,10,19,18,97,42,7,33,29]","34.8"
"593","2220","6","23","1","63","1","1581424226","1581424155","239","[87,65,42]","108.2"
"594","2276","6","23","1","91","1","1581424236","1581424155","239","[65]","176"
"595","2285","6","23","1","23","1","1581424231","1581424155","239","[100,97,65,46]","42"
"596","2218","6","23","1","28","1","1581424238","1581424155","239","[90,65]","103.9"
"597","2268","6","23","1","36","1","1581424211","1581424155","239","[24,62]","146"
"598","2223","6","23","1","76","1","1581424238","1581424155","239","[57,74,24,72,5,65,90,30,53,96,9,49]","46.5"
"599","2275","6","23","1","81","1","1581424200","1581424155","239","[71,98,15,27,31,3,28,79]","153"
"600","2245","6","23","1","27","1","1581424231","1581424155","239","[8,17,49,91,21,59,34]","157.7"
