"id","id_subj","round","session","period","id_grp","grp","time","time_start","duration","links","payoff"
"1","2143","1","22","1","1","1","1581414209","1581414015","197","[19,42,87,34,66,88,95,81,36,30,20,62,11,54,60,70,50,91,28,97,93,65,29]","-488.2"
"2","2142","1","22","1","83","1","1581414209","1581414015","197","[42,16,46,86,18,53,23,63,2,77,44,90]","90.5"
"3","2109","1","22","1","29","1","1581414181","1581414015","197","[100,49,38,97,75,24,21,85,19,62,46,56,36,89,28,54,50,20,70,1,65]","-522.5"
"4","2133","1","22","1","53","1","1581414209","1581414015","197","[71,9,15,8,79,48,59,13,77,12,55,27,35,67]","-72"
"5","2123","1","22","1","22","1","1581414195","1581414015","197","[8,23,85,99,41,57,90,17,51,52,14,69,15,39,2,6,25,68,95]","-141.2"
"6","2176","1","22","1","9","1","1581414201","1581414015","197","[100,18,38,83,46,7,41,40,37,57,5]","45.7"
"7","2196","1","22","1","11","1","1581414209","1581414015","197","[59,39,24]","125.2"
"8","2197","1","22","1","49","1","1581414208","1581414015","197","[93,80,55,47,53,46,44,34,16,17,74,13,14,11,82,64,23]","-64.6"
"9","2183","1","22","1","69","1","1581414207","1581414015","197","[4,43,55,97,8,84,95,81]","-39.6"
"10","2170","1","22","1","84","1","1581414210","1581414015","197","[71,57,83,26,78,98,82,68,95,45]","12.5"
"11","2159","1","22","1","58","1","1581414211","1581414015","197","[32,45,77,71,38,90,6,44,73,42,28,53,37,99,26,39,41,80,89,13,12]","-176.8"
"12","2157","1","22","1","74","1","1581414204","1581414015","197","[73,97,12,38,31,3]","86.1"
"13","2195","1","22","1","47","1","1581414201","1581414015","197","[35,7,46]","148.9"
"14","2184","1","22","1","40","1","1581414210","1581414015","197","[60,46,91]","87.3"
"15","2194","1","22","1","34","1","1581414190","1581414015","197","[8,49,38,79,72,55,17,99,85,6,39,25,24,42,98,70,16,27]","208.3"
"16","2180","1","22","1","52","1","1581414211","1581414015","197","[48,36,32,22,57,98,95,25,91,78,68,14,24,97,56,50,30,94]","-312.6"
"17","2200","1","22","1","44","1","1581414211","1581414015","197","[8,97,49,79,37,1,75,58,63,45,77,67,54,81,70,100,28,13,17,25,15,27,2,83,12,72]","-31.3"
"18","2191","1","22","1","20","1","1581414212","1581414015","197","[36,100,8,28,62,54,87]","-264.6"
"19","2198","1","22","1","57","1","1581414015","1581414015","197","[]","0"
"20","2164","1","22","1","7","1","1581414205","1581414015","197","[38,90,23,25,41,83,5,9,97,93]","53.8"
"21","2101","1","22","1","96","1","1581414209","1581414015","197","[36,8,97,71,57,67,35,37,93,48,61,23,41,65,66,45,79,5]","-221.2"
"22","2185","1","22","1","2","1","1581414191","1581414015","197","[67,44,81]","94.9"
"23","2188","1","22","1","73","1","1581414195","1581414015","197","[36,74,58,25,42,47,95,10,24,39,76]","-13"
"24","2174","1","22","1","68","1","1581414212","1581414015","197","[63,25,35,11,19,64,26,47,99,24,39,59,14,10,22,66,52,94,82,70,74,31,6,41,71,45]","-249"
"25","2115","1","22","1","80","1","1581414212","1581414015","197","[45,23,16,49,5,7,46,98,4,92,83,12,93,71,58,81,55,48,1,91,69,79,99]","-246.7"
"26","2189","1","22","1","35","1","1581414210","1581414015","197","[19,83,9,28,53,93,57,78,15,81,48,96,10,47,6,43,38]","-15.2"
"27","2181","1","22","1","18","1","1581414136","1581414015","197","[11,9,5,4,98]","-0.9"
"28","2103","1","22","1","42","1","1581414181","1581414015","197","[58,97,37,79,67,88,56]","-96.8"
"29","2102","1","22","1","61","1","1581414210","1581414015","197","[8,34,62,88,38,96]","-36.3"
"30","2111","1","22","1","31","1","1581414209","1581414015","197","[51,45,17,74,41,59,47]","53.2"
"31","2113","1","22","1","4","1","1581414193","1581414015","197","[18,23,12,80,5,43,28,93,36,69]","-181.2"
"32","2112","1","22","1","5","1","1581414209","1581414015","197","[38,18,77,7,4]","-1.5"
"33","2135","1","22","1","91","1","1581414200","1581414015","197","[37,8,48,79,63,46,99,55,40,74,24,1,42,25,82,12,60,62,84,11,65,85,97,14,36,81,89,80]","-309.9"
"34","2141","1","22","1","62","1","1581414170","1581414015","197","[48,8,37,79,100,1,42,61,63,20,40,50,21,29,74,97,88,86,28,75,54,87,91]","-411.7"
"35","2144","1","22","1","46","1","1581414188","1581414015","197","[36,49,25,63,8,59,13,53,2]","87.2"
"36","2150","1","22","1","63","1","1581414203","1581414015","197","[1,48,8,79,44,27,88,20,15,81]","39.8"
"37","2132","1","22","1","37","1","1581414211","1581414015","197","[19,88,20,30,1,81,36]","90.3"
"38","2193","1","22","1","6","1","1581414211","1581414015","197","[45,79,92,15,69,2,21,48,83,57,86,22,68]","33.3"
"39","2107","1","22","1","87","1","1581414202","1581414015","197","[8,100,1,97,63,46,99,50,59,48,36,20,28,57,15,62,94,54]","-406.6"
"40","2147","1","22","1","85","1","1581414209","1581414015","197","[6,34]","119.5"
"41","2160","1","22","1","30","1","1581414209","1581414015","197","[75,23,56,84,95,19,1,70,36,13,41,52,91]","-152.4"
"42","2105","1","22","1","95","1","1581414208","1581414015","197","[1,8,48,73,54,64,25,36,56,24,71,83,50,84,38,86,81,57,70,59,69,26,28,30,94,52,66,22,39,3,17,98,72,10,92]","-232.4"
"43","2116","1","22","1","27","1","1581414207","1581414015","197","[76,15,79,38,45,37,88,42,32,70,53,12,91,44,46,2,85]","-0.5"
"44","2139","1","22","1","64","1","1581414193","1581414015","197","[36,45,19,11,16,34,68,25,24,95,98,74,89,26,39,33,94]","-229"
"45","2118","1","22","1","60","1","1581414211","1581414015","197","[79,75,48,40,37,61,53,86,63,18,21,1]","-19.1"
"46","2138","1","22","1","81","1","1581414201","1581414015","197","[78,63,100,1,99,95,35,80,98,44,84,19,75,32,36,91,82,96,24,8,50,28,72,56,89]","-213.6"
"47","2124","1","22","1","65","1","1581414210","1581414015","197","[29,91,56,96,28,50,1]","-239.6"
"48","2165","1","22","1","25","1","1581414211","1581414015","197","[37,45,61,76,64,38,72,44,15,10,66,32,9,69,79,81]","-50.5"
"49","2134","1","22","1","100","1","1581414195","1581414015","197","[79,19,29,87,11,54,67,62,44,36,81,14,63,23,20,8,5,9,75,32,17]","-357.9"
"50","2117","1","22","1","51","1","1581414210","1581414015","197","[76,31,17,22,36,24,14,37]","27.6"
"51","2146","1","22","1","75","1","1581414208","1581414015","197","[29,63,67,50,60,81,28,87,20,100]","-176.4"
"52","2106","1","22","1","14","1","1581414189","1581414015","197","[49,18,100,75,97,20,61,37,41,9,91,23,12,83,22,16,73,2,51,26,39,52,10,68,35,17]","-115.2"
"53","2125","1","22","1","92","1","1581414015","1581414015","197","[]","0"
"54","2148","1","22","1","82","1","1581414212","1581414015","197","[34,33,50,13,3]","47.7"
"55","2128","1","22","1","8","1","1581414203","1581414015","197","[75,20,85,92,78,10,69,17,96,49,79,18,97,100,36,30,14,81,55,99,31,93,61,87,7,5,91]","-410.8"
"56","2178","1","22","1","48","1","1581414186","1581414015","197","[40,3]","0"
"57","2119","1","22","1","67","1","1581414209","1581414015","197","[100,42,75,17,96,24,12,53,44,15,90,2,93,83]","-234.3"
"58","2114","1","22","1","55","1","1581414212","1581414015","197","[45,32,48,3,59,94,76,79,80,83,17]","-36.8"
"59","2108","1","22","1","86","1","1581414212","1581414015","197","[8,97,54,74,37,48,40,63,87,62,100]","26.6"
"60","2179","1","22","1","17","1","1581414212","1581414015","197","[8,82,19,56,61,20,77,7,35,16,24,98,55,41,1]","39.1"
"61","2129","1","22","1","36","1","1581414212","1581414015","197","[100,8,79,75,85,19,4,21,59,37,87,32,66,50,29,81,91,20,82,98,61,96,78,10]","-382.4"
"62","2145","1","22","1","97","1","1581414207","1581414015","197","[8,37,63,42,79,74,82,25,46,29,87,91,88,98,62,7,5,93,34,44,96,23,32,14,86,60,69,3,13,35,1,52,33,2,71,39,48,57,21,50]","-44.3"
"63","2182","1","22","1","89","1","1581414209","1581414015","197","[78,98,15,11,68,63,19,29,59,58,64,23,35,91,34,26,52,81]","-128.6"
"64","2175","1","22","1","10","1","1581414142","1581414015","197","[8,35,98,56,73,14,33]","-85.6"
"65","2140","1","22","1","38","1","1581414206","1581414015","197","[17,53,2,23,88,42,35,80]","30.3"
"66","2130","1","22","1","66","1","1581414211","1581414015","197","[48,1,79,59,36,68,94,95,93,72,96,39]","-119.7"
"67","2121","1","22","1","54","1","1581414211","1581414015","197","[37,48,75,50,100,99,63,44,86,62,78,27,1,89,66,95,20,87,40,29,17,57,8,69]","-359.2"
"68","2158","1","22","1","32","1","1581414209","1581414015","197","[76,15,55,64,38,68,85,34,39,97,82,46,81,19,56,73,61,35,100,17,74,47,23,69,99]","-75"
"69","2171","1","22","1","70","1","1581414196","1581414015","197","[99,40,35,95,30,63,61,1,28]","-41.5"
"70","2120","1","22","1","13","1","1581414206","1581414015","197","[72,32,83,88,71,82,30,44,45,17,97,28,27,61,74,55,49,53,46,12,99]","-139.8"
"71","2136","1","22","1","15","1","1581414199","1581414015","197","[34,67,42,61,17,82,35,88,24,33,44,32,8,81]","-23.7"
"72","2153","1","22","1","3","1","1581414203","1581414015","197","[56,12,95]","96"
"73","2122","1","22","1","23","1","1581414199","1581414015","197","[8,38,97,79,49,100,36,43,4,63,37,59,85,27,46,89,96,80,16,55,84,69]","-184.5"
"74","2190","1","22","1","79","1","1581414211","1581414015","197","[3,68,66,11,96,97,93,42,91,63,44]","-243.6"
"75","2110","1","22","1","94","1","1581414210","1581414015","197","[8,71,48,63,87,56,21,68,52,11,19,66,64]","-155.8"
"76","2126","1","22","1","56","1","1581414205","1581414015","197","[8,48,42,75,17,3,30,26,34,95,94,10,65,92,52,2,29,69,98,45,32,81]","-361.2"
"77","2127","1","22","1","88","1","1581414211","1581414015","197","[97,8,19,1,98,27,68,42,61,38,37]","-67.9"
"78","2104","1","22","1","19","1","1581414201","1581414015","197","[82,11,34,100,20,81]","103.2"
"79","2186","1","22","1","99","1","1581414212","1581414015","197","[36,24,11,58,85,61,88,35,17,42,13,81,91,10,82]","-16.1"
"80","2131","1","22","1","90","1","1581414202","1581414015","197","[8,45,12,77,67,16,58]","39.2"
"81","2154","1","22","1","21","1","1581414212","1581414015","197","[60,62]","77.4"
"82","2162","1","22","1","93","1","1581414209","1581414015","197","[8,1,84,79,97,37,15,66,25,78,49,4,12,35,80,41,46,7,43]","-145.8"
"83","2155","1","22","1","72","1","1581414212","1581414015","197","[27,45,34,16,53,24,46,57,7,28,12,25,41,66,98,42,61,95,13,44,93,17,81,91,36,29,1,30,89]","-58.9"
"84","2149","1","22","1","43","1","1581414211","1581414015","197","[23,9,4,82,34,98,69,42,61,35,8,19,93,32,97,57,92,21,2,91,81]","-111.8"
"85","2187","1","22","1","26","1","1581414211","1581414015","197","[45,15,84,83,16,34,95,35,98,56,14,24,89]","-196.7"
"86","2169","1","22","1","33","1","1581414200","1581414015","197","[45,82,64,34,11]","48"
"87","2199","1","22","1","16","1","1581414204","1581414015","197","[15,80,26,84,98,35,45,74,72,2]","-107.9"
"88","2163","1","22","1","71","1","1581414207","1581414015","197","[84,90,58,2,45,76,41]","30.2"
"89","2173","1","22","1","77","1","1581414209","1581414015","197","[58,45,7,32,16,83,46,69,57,53,44,92]","-67.4"
"90","2151","1","22","1","50","1","1581414210","1581414015","197","[8,48,79,59,82,42,29,61,75,54,99,53,62,63,5,36,65,1,81,95,14,19,40,97,3,70,30]","-376.5"
"91","2192","1","22","1","24","1","1581414211","1581414015","197","[76,72,42,40,36,57,82,88,61,85,53,19,94,3,39,84,31,74,81,70]","101.7"
"92","2168","1","22","1","28","1","1581414211","1581414015","197","[4,37,72,44,75,62,29,87,35,32,65,13,58,81,24,70,1,20,60]","-291.8"
"93","2167","1","22","1","59","1","1581414208","1581414015","197","[15,31,89,66,3,11]","164"
"94","2152","1","22","1","39","1","1581414210","1581414015","197","[8,64,42,35,85,63,97]","114"
"95","2166","1","22","1","78","1","1581414209","1581414015","197","[42,61,37,81,98,24,3,64,26]","103.5"
"96","2177","1","22","1","12","1","1581414212","1581414015","197","[8,83,98,85,36,75,37,45,13,23,18,44,34,2,96]","32.5"
"97","2137","1","22","1","76","1","1581414211","1581414015","197","[17,27,53,26,73,35,31,84,25,55,93,41,58,49,72,7]","-90.1"
"98","2156","1","22","1","45","1","1581414209","1581414015","197","[58,76,80,47,17,84,35,55,19,90,36,72,31,44,6,13,61,26,68,98,16,34,25,38,27,77,12,9,21,75,33,64,96,57,56]","51.8"
"99","2172","1","22","1","41","1","1581414212","1581414015","197","[38,12,76,31,18,90,93,23,85,6,71]","29.5"
"100","2161","1","22","1","98","1","1581414207","1581414015","197","[89,10,24,78,6,16,45,80,64,81,18,52,56,3,39,70,97,19,74]","-206.2"
"101","2184","2","22","1","58","1","1581414495","1581414425","197","[30,39,68]","33.8"
"102","2129","2","22","1","17","1","1581414492","1581414425","197","[8,49,59,1,43,10,98]","-15.5"
"103","2123","2","22","1","53","1","1581414495","1581414425","197","[17,88,52,82,30]","-41.8"
"104","2171","2","22","1","94","1","1581414472","1581414425","197","[79,17,63,96,25,33]","67.4"
"105","2166","2","22","1","12","1","1581414497","1581414425","197","[8,1,49,80,43,38,11,85,42]","-62.6"
"106","2181","2","22","1","31","1","1581414495","1581414425","197","[71,61,88,39]","27.3"
"107","2132","2","22","1","80","1","1581414498","1581414425","197","[60,23,70,6,42,19,100,87,54,28]","176.9"
"108","2157","2","22","1","43","1","1581414497","1581414425","197","[1,49,17,18,12,85,97,29,65,4,40]","-135.1"
"109","2182","2","22","1","90","1","1581414498","1581414425","197","[75,78,8,37,66,63,17,98,21,9,46,55,20,59,84,89]","-81.5"
"110","2163","2","22","1","32","1","1581414496","1581414425","197","[25,37,75,46,24,100,20,66,76]","-43.5"
"111","2176","2","22","1","93","1","1581414466","1581414425","197","[1,8,48,17,92,89]","49"
"112","2177","2","22","1","77","1","1581414497","1581414425","197","[63,17,22,56,48,86,18,9]","17.5"
"113","2104","2","22","1","68","1","1581414478","1581414425","197","[57,58,36,100,24,41]","29.3"
"114","2147","2","22","1","87","1","1581414453","1581414425","197","[88]","150.4"
"115","2188","2","22","1","48","1","1581414496","1581414425","197","[93,99,74,92,89,66,77,67,47]","-95.8"
"116","2168","2","22","1","98","1","1581414495","1581414425","197","[24,18,9,59,100,51,89,97,2,32,78,11,74,3,75,60,90,13,39,88,71,92,16,4,17]","892"
"117","2101","2","22","1","15","1","1581414495","1581414425","197","[18,30,20,32,84]","81.5"
"118","2178","2","22","1","38","1","1581414497","1581414425","197","[12,18,11,71,42,34,16]","-106.1"
"119","2102","2","22","1","39","1","1581414478","1581414425","197","[72,84,58,76,51,15,71,31,98,20,64,32,1,10]","37.7"
"120","2193","2","22","1","5","1","1581414498","1581414425","197","[23,30,42,51,55,32,78]","23.8"
"121","2170","2","22","1","56","1","1581414495","1581414425","197","[76,10,64,85,17,79,9,77,25,27,19,8,98]","32.6"
"122","2195","2","22","1","49","1","1581414491","1581414425","197","[2,12]","123.8"
"123","2152","2","22","1","78","1","1581414497","1581414425","197","[71,30,100,5,59]","70"
"124","2167","2","22","1","28","1","1581414489","1581414425","197","[100,46,80]","80.5"
"125","2154","2","22","1","6","1","1581414496","1581414425","197","[80,88]","128.4"
"126","2174","2","22","1","55","1","1581414498","1581414425","197","[36,8,42,17,96,51,47,78,90]","17.2"
"127","2156","2","22","1","75","1","1581414496","1581414425","197","[64,2,32,86,61,70,90,71,91,39,98,16,29,65]","-97.3"
"128","2200","2","22","1","45","1","1581414494","1581414425","197","[8,22,19,33,82]","-23.8"
"129","2179","2","22","1","88","1","1581414486","1581414425","197","[83,15,71,25,98,31,87,35,30,58,57,44,68,3,61,82,50,91,53,13,81,70,67]","710.9"
"130","2199","2","22","1","51","1","1581414471","1581414425","197","[76,72,97,36,63]","8.8"
"131","2192","2","22","1","50","1","1581414492","1581414425","197","[64,17,10,59,1,55,100,11,54]","-20.5"
"132","2142","2","22","1","27","1","1581414490","1581414425","197","[8,24,56,59]","72.7"
"133","2103","2","22","1","24","1","1581414489","1581414425","197","[84,64,98,69,76,68,27,93]","70.5"
"134","2155","2","22","1","37","1","1581414497","1581414425","197","[59,32,99,74,47,9,55,61,90,42,33,92,73,2,4,66]","-256.5"
"135","2128","2","22","1","65","1","1581414493","1581414425","197","[85,17,8,79,64,23,50,80,6]","0"
"136","2149","2","22","1","83","1","1581414474","1581414425","197","[88,30,19,52]","-3.4"
"137","2108","2","22","1","59","1","1581414494","1581414425","197","[8,37,1,72,76,84,3,78,98]","-98.4"
"138","2139","2","22","1","16","1","1581414449","1581414425","197","[8,98,85,38,22]","71.3"
"139","2119","2","22","1","60","1","1581414494","1581414425","197","[80,17,79,46,18,64,41,57,1,23,66,95,72,84,98,86,5]","572.6"
"140","2122","2","22","1","89","1","1581414476","1581414425","197","[8,48,79,63,99,51,97,64,41,47,17,11,10,90]","-6.1"
"141","2135","2","22","1","23","1","1581414497","1581414425","197","[17,46,60,5]","60.7"
"142","2124","2","22","1","74","1","1581414497","1581414425","197","[8,1,37,48,17,80,99,32,49,66,92]","-135.8"
"143","2113","2","22","1","10","1","1581414496","1581414425","197","[1,8,49,100,18,47,11,50,17,63,13]","-182.7"
"144","2189","2","22","1","46","1","1581414497","1581414425","197","[92,32,23,91,60,100,61,47,73,34,67]","-77.1"
"145","2183","2","22","1","2","1","1581414484","1581414425","197","[75,67,98]","202.4"
"146","2118","2","22","1","97","1","1581414498","1581414425","197","[96,51,69,43,9,98,99,92,89,14]","-79.7"
"147","2148","2","22","1","81","1","1581414496","1581414425","197","[100,8,17,42,49,88,58]","150.4"
"148","2112","2","22","1","35","1","1581414496","1581414425","197","[88,73]","150.4"
"149","2141","2","22","1","19","1","1581414485","1581414425","197","[22,57,45,83,56]","11.1"
"150","2191","2","22","1","26","1","1581414495","1581414425","197","[9,100,5,33,96]","42.8"
"151","2144","2","22","1","69","1","1581414487","1581414425","197","[46,80,42,36,84,32]","0"
"152","2125","2","22","1","42","1","1581414497","1581414425","197","[8,49,17,64,80,85,24,51,10,18,26,38,1,84,3,46,27,12,14]","-58"
"153","2126","2","22","1","7","1","1581414496","1581414425","197","[9,49,18,10,1,62,36,24,86,71,34,21,100,70]","34.4"
"154","2109","2","22","1","18","1","1581414490","1581414425","197","[8,38,22,17,43,56,77,49,1]","22.9"
"155","2106","2","22","1","13","1","1581414472","1581414425","197","[72,84,98,8,57,20,10,18,88]","15.1"
"156","2196","2","22","1","61","1","1581414493","1581414425","197","[8,37,76,46,30,75,88,4,62,73]","26.1"
"157","2160","2","22","1","76","1","1581414498","1581414425","197","[63,84,24,59,51,61,30,73,33,25,92,47,39]","38.2"
"158","2137","2","22","1","21","1","1581414493","1581414425","197","[76,64,73,55,78,100,6,40,51]","110.2"
"159","2151","2","22","1","41","1","1581414495","1581414425","197","[100,60,79,73,23,61]","38.2"
"160","2153","2","22","1","79","1","1581414442","1581414425","197","[60]","150.4"
"161","2133","2","22","1","63","1","1581414494","1581414425","197","[97,17,76,8,51,10,9,96,92,12,28]","-124.1"
"162","2165","2","22","1","91","1","1581414476","1581414425","197","[76,100]","0"
"163","2136","2","22","1","73","1","1581414494","1581414425","197","[36,76,15,84,44,50,41,46,57,37,78,61,47,32]","-187.4"
"164","2159","2","22","1","85","1","1581414497","1581414425","197","[24,79,42,12,43,49,11]","-75.5"
"165","2111","2","22","1","11","1","1581414496","1581414425","197","[1,8,100,18,49,12,51,96,98,50,85,38,10,34,40]","128.8"
"166","2127","2","22","1","25","1","1581414496","1581414425","197","[8,72,82,76,32,22,88,56,94,86]","162.4"
"167","2116","2","22","1","40","1","1581414495","1581414425","197","[76,8,17,21,10,43,11,18,72,28]","126.8"
"168","2169","2","22","1","57","1","1581414497","1581414425","197","[19,24,64,88,60,68,73,20,3,13]","127"
"169","2115","2","22","1","1","1","1581414492","1581414425","197","[10,18,59,43,96,47,9,12,11,99,17,60,50,66,74,7,14,42,39,93]","327.1"
"170","2187","2","22","1","33","1","1581414498","1581414425","197","[76,64,41,50,69,72,38,45,11,37,59,94]","50.1"
"171","2162","2","22","1","96","1","1581414497","1581414425","197","[1,63,97,17,32,26,40]","-25"
"172","2173","2","22","1","22","1","1581414496","1581414425","197","[64,85,100,77,16,55,12,45,25]","100.8"
"173","2140","2","22","1","52","1","1581414484","1581414425","197","[51,76,30,83,53]","-17.8"
"174","2117","2","22","1","4","1","1581414496","1581414425","197","[72,37,98,26,74,64,59,47,76,78,3,57]","29.2"
"175","2161","2","22","1","100","1","1581414498","1581414425","197","[36,71,50,78,93,41,64,10,28,18,51,32,46,11,68,47,80,30,59,98,14,26,94,22]","352.5"
"176","2164","2","22","1","34","1","1581414497","1581414425","197","[49,43,46,38,7]","30.1"
"177","2180","2","22","1","3","1","1581414496","1581414425","197","[49,47,88,98,30,59,4]","-56.9"
"178","2186","2","22","1","72","1","1581414467","1581414425","197","[40,60,51]","106.6"
"179","2105","2","22","1","86","1","1581414492","1581414425","197","[17,63,75,62,4,7,22,77,56,55,25]","-32.5"
"180","2190","2","22","1","29","1","1581414498","1581414425","197","[10,8]","0"
"181","2185","2","22","1","8","1","1581414486","1581414425","197","[66]","0"
"182","2134","2","22","1","36","1","1581414498","1581414425","197","[47,73,7,55]","-48.9"
"183","2145","2","22","1","82","1","1581414484","1581414425","197","[24,15,45,87,67,71,25,88,74,14,53]","-14.3"
"184","2114","2","22","1","62","1","1581414496","1581414425","197","[86,7,61,80]","16.8"
"185","2143","2","22","1","47","1","1581414495","1581414425","197","[76,8,1,49,17,80,64,85,10,42,46,37,84,3,100,78,69,36,55,59,73,66]","-131.2"
"186","2130","2","22","1","70","1","1581414490","1581414425","197","[80,88]","182.3"
"187","2172","2","22","1","71","1","1581414494","1581414425","197","[72,98,15,31,10,73,12,4,54,38,75,62,7,36,88,52,61,2]","36.7"
"188","2120","2","22","1","9","1","1581414491","1581414425","197","[74,26,90,64,1,97,63,12,69,59,42,37,92,77]","-67.9"
"189","2110","2","22","1","66","1","1581414495","1581414425","197","[17,90,74,32,42,37,60,1,100,84,47,55]","-149.5"
"190","2107","2","22","1","54","1","1581414498","1581414425","197","[8,37,17,42,85,40,49,72,12,64,50,21,6,80]","65.9"
"191","2138","2","22","1","84","1","1581414498","1581414425","197","[76,59,24,78,20,60,39,90]","-96.1"
"192","2194","2","22","1","64","1","1581414498","1581414425","197","[60,89,42]","63.5"
"193","2150","2","22","1","95","1","1581414483","1581414425","197","[15,37,36,60,74,17,70,8]","150.4"
"194","2175","2","22","1","44","1","1581414497","1581414425","197","[88,76]","150.4"
"195","2121","2","22","1","92","1","1581414497","1581414425","197","[8,17,78,93,99,74,89,63,97,76,51,98,96,66]","-38"
"196","2131","2","22","1","14","1","1581414498","1581414425","197","[10,100,59,1,12]","101.1"
"197","2158","2","22","1","20","1","1581414496","1581414425","197","[15,32,59,55,90,57,3,78,68]","25.9"
"198","2146","2","22","1","67","1","1581414490","1581414425","197","[10,40,2]","117.5"
"199","2197","2","22","1","30","1","1581414491","1581414425","197","[72,15,58,76,64,24,10,78,61,88,83,3,5,52,53]","43.2"
"200","2198","2","22","1","99","1","1581414497","1581414425","197","[1,8,48,37,84,17,74,24,97,9,96,66,93]","-72.9"
"201","2123","3","22","1","57","1","1581415070","1581415055","73","[97,66]","149"
"202","2142","3","22","1","71","1","1581415164","1581415055","73","[77,97,85,49,86,78,10,67,34,40,95,6,16,74,43,5,20,91,23,33,79,53,31]","-212.6"
"203","2116","3","22","1","66","1","1581415150","1581415055","73","[76,72,48,79,47,38,97,40,3]","90.7"
"204","2152","3","22","1","33","1","1581415169","1581415055","73","[86,63,60,46,42,3,99,58,41,71,16]","-193.5"
"205","2182","3","22","1","89","1","1581415157","1581415055","73","[1,78,28,38,93,54]","101.4"
"206","2183","3","22","1","55","1","1581415167","1581415055","73","[64,67,18,12,94]","121.8"
"207","2176","3","22","1","48","1","1581415147","1581415055","73","[37,75,58,13,49,26]","51.3"
"208","2200","3","22","1","36","1","1581415167","1581415055","73","[78,12,8]","75.9"
"209","2119","3","22","1","50","1","1581415167","1581415055","73","[31,25,72,8,12,35,60,86,28,56,92,74,52,63,68,85,59,67,82,17,81,37,53,6,18,43,87,23,98,20,13,88,90,97,40,15]","-42.8"
"210","2159","3","22","1","38","1","1581415140","1581415055","73","[5]","152.4"
"211","2113","3","22","1","54","1","1581415152","1581415055","73","[49,32,38,78,28]","64.5"
"212","2108","3","22","1","27","1","1581415166","1581415055","73","[76,58,60,47,8,12,63,36]","51.8"
"213","2162","3","22","1","52","1","1581415159","1581415055","73","[37,17,59,48,8,63,73,85]","143.5"
"214","2186","3","22","1","19","1","1581415163","1581415055","73","[49,17,38,58,67,9,24,52,59,74,98,39,68,47,22]","128.1"
"215","2188","3","22","1","76","1","1581415167","1581415055","73","[34,66,70,56,28,27,7,53]","-126.8"
"216","2136","3","22","1","88","1","1581415167","1581415055","73","[83,8,23,4,41,50,10]","-97.6"
"217","2174","3","22","1","3","1","1581415164","1581415055","73","[18,79,16,43,19,38]","0"
"218","2184","3","22","1","7","1","1581415169","1581415055","73","[96,100,78,63,8,76]","40.5"
"219","2185","3","22","1","46","1","1581415119","1581415055","73","[33,8]","127.5"
"220","2139","3","22","1","11","1","1581415122","1581415055","73","[8,49,59,28,78,53]","24.1"
"221","2165","3","22","1","61","1","1581415146","1581415055","73","[38,56]","151.9"
"222","2131","3","22","1","20","1","1581415155","1581415055","73","[8,100,12,71]","1.6"
"223","2171","3","22","1","92","1","1581415168","1581415055","73","[8,80]","317.6"
"224","2147","3","22","1","29","1","1581415168","1581415055","73","[78]","173.9"
"225","2127","3","22","1","25","1","1581415160","1581415055","73","[40,78,39]","92.9"
"226","2143","3","22","1","17","1","1581415166","1581415055","73","[49,79,82,64,67,48,37,24,59,85,52,72,81,68,8,74,43,100,86,6,40,38,97,39,50]","81"
"227","2125","3","22","1","43","1","1581415168","1581415055","73","[72,17,61,74,26,58,15,79,27,63,16,77,40,100,45,82,85,41,49,18,6,5,99,96,64,83,13,23]","-78.1"
"228","2122","3","22","1","58","1","1581415086","1581415055","73","[48,97,26,82,49,64]","69.6"
"229","2111","3","22","1","24","1","1581415155","1581415055","73","[8,1,67,58,52]","188"
"230","2148","3","22","1","80","1","1581415163","1581415055","73","[58,92]","132.1"
"231","2101","3","22","1","98","1","1581415169","1581415055","73","[8,23,68]","111.9"
"232","2109","3","22","1","63","1","1581415169","1581415055","73","[100,12,33,79,69,68,85,73,50,43,52,47,41,16,31,24,74,77]","-193.4"
"233","2118","3","22","1","62","1","1581415157","1581415055","73","[12,57,97]","180.9"
"234","2140","3","22","1","39","1","1581415157","1581415055","73","[25,17,84,56,55,68,98,61]","57.6"
"235","2124","3","22","1","56","1","1581415166","1581415055","73","[61,47,8,9,39,84,55,98,30,68,21,50,35,60]","138.3"
"236","2198","3","22","1","82","1","1581415100","1581415055","73","[8,48,100]","126"
"237","2145","3","22","1","9","1","1581415169","1581415055","73","[47,84,96,28,5,3,34,11,19,56,65]","111.7"
"238","2144","3","22","1","67","1","1581415152","1581415055","73","[63,20,59,8]","188"
"239","2135","3","22","1","34","1","1581415169","1581415055","73","[72,98,25,37,76,71,88,77,38,30,24,16,73,9,53]","-18.4"
"240","2102","3","22","1","35","1","1581415169","1581415055","73","[50,30,8,47]","42.6"
"241","2104","3","22","1","4","1","1581415136","1581415055","73","[12,8]","126.5"
"242","2138","3","22","1","59","1","1581415136","1581415055","73","[8,73]","188"
"243","2132","3","22","1","47","1","1581415169","1581415055","73","[63,62,52,35]","92.6"
"244","2146","3","22","1","75","1","1581415140","1581415055","73","[97]","149"
"245","2126","3","22","1","73","1","1581415167","1581415055","73","[75,46,18,85,21,79,39,52,68]","144.3"
"246","2105","3","22","1","95","1","1581415142","1581415055","73","[8,12,71,33,16]","68.9"
"247","2121","3","22","1","84","1","1581415109","1581415055","73","[98,24,55,12,44,1,77,21,56,86]","122.6"
"248","2117","3","22","1","22","1","1581415150","1581415055","73","[93,72,39,65,78,25,99]","13.9"
"249","2120","3","22","1","97","1","1581415164","1581415055","73","[98,36,75,48,17,57,83,13,55,6,71,64,49,72,43,58,99,18,100,26,86]","213.5"
"250","2156","3","22","1","81","1","1581415168","1581415055","73","[37,79,94,85,24,84,75,17,50,73,23]","-6.3"
"251","2134","3","22","1","79","1","1581415150","1581415055","73","[98,27,63,5,12,71]","47.8"
"252","2128","3","22","1","10","1","1581415168","1581415055","73","[18,49,71,79,8,38,67,12,100,43,72,40,16,78,77,92,87,90,88,53]","-352.8"
"253","2110","3","22","1","44","1","1581415164","1581415055","73","[47,90,12]","105"
"254","2141","3","22","1","2","1","1581415164","1581415055","73","[1,78,16,53,11]","36.5"
"255","2129","3","22","1","28","1","1581415164","1581415055","73","[87,9,62,54,11,89,90,50,76,70,53,78,98,20,37,6,83,26,48]","-218.2"
"256","2192","3","22","1","13","1","1581415168","1581415055","73","[64,48]","152.5"
"257","2168","3","22","1","12","1","1581415169","1581415055","73","[8,23,87,21,50,63,4,96,77,78,55,20,95,16,10,62,40,90,36,79,91,84,27,53,100,51,30,44,14,1]","533.1"
"258","2170","3","22","1","87","1","1581415167","1581415055","73","[98,78,28,50,10]","-32.5"
"259","2178","3","22","1","32","1","1581415146","1581415055","73","[8,91,33,54,30,88,1]","17.3"
"260","2149","3","22","1","16","1","1581415169","1581415055","73","[72,33,74,25,98,78,79,86,27,77,18,23,10,24,5,34,40,96,47,38,85,82,52,64,100,67,43,20,12,91,2,99,55,88,8,63,90,41,71]","-272"
"261","2130","3","22","1","26","1","1581415118","1581415055","73","[18,58]","87.8"
"262","2175","3","22","1","86","1","1581415169","1581415055","73","[71,15,38,57,18]","89.1"
"263","2154","3","22","1","21","1","1581415164","1581415055","73","[12,66]","180.9"
"264","2173","3","22","1","72","1","1581415168","1581415055","73","[100,48,1,75,46,84,59,39,30,19,94,22,97,15,17,3]","12.5"
"265","2164","3","22","1","6","1","1581415169","1581415055","73","[41,50,3,57,97]","60.8"
"266","2196","3","22","1","5","1","1581415160","1581415055","73","[58,100,38,78,8,9]","269.5"
"267","2158","3","22","1","90","1","1581415166","1581415055","73","[75,78,53,44,12,28,14,92,50,51,62,36,16,10,2,87,31,91]","-325.2"
"268","2177","3","22","1","68","1","1581415169","1581415055","73","[90,46,66,37,75,63,56,17]","44.7"
"269","2180","3","22","1","37","1","1581415135","1581415055","73","[72,47,81,17]","80.9"
"270","2161","3","22","1","23","1","1581415163","1581415055","73","[12,74,98,55,94,8,47,77,21,1,82,71,68,39,88,4,64,85,81]","-151.4"
"271","2190","3","22","1","53","1","1581415164","1581415055","73","[94,18,4,65,98,25,50,2,93,11,78,36,62,12,31,22,51,79,71,40,90,76,34,10]","-337.7"
"272","2191","3","22","1","14","1","1581415161","1581415055","73","[8]","188"
"273","2195","3","22","1","51","1","1581415157","1581415055","73","[73,12]","180.9"
"274","2187","3","22","1","60","1","1581415168","1581415055","73","[1,21,27,78,69,51,50,56,33]","-62.5"
"275","2106","3","22","1","93","1","1581415118","1581415055","73","[17,98,42,53,78,22]","157.7"
"276","2167","3","22","1","30","1","1581415155","1581415055","73","[8,77,64,55,35,12,56,9,32]","-77.4"
"277","2194","3","22","1","15","1","1581415169","1581415055","73","[40,18,83,86,43,78,50]","-26.4"
"278","2157","3","22","1","77","1","1581415168","1581415055","73","[25,18,31,36,88,12,8,69]","31.7"
"279","2181","3","22","1","41","1","1581415168","1581415055","73","[8,33,63,58,40,78,6,55,88,16]","-125.4"
"280","2137","3","22","1","91","1","1581415169","1581415055","73","[32,16,87,21,69,55,23,12,36,95,8,20,7,9]","-36"
"281","2107","3","22","1","69","1","1581415167","1581415055","73","[63,60,68,33,95,67,91,16,77]","-38.4"
"282","2189","3","22","1","65","1","1581415168","1581415055","73","[28,64,85,22,99,30,42,19,45,8,7,24,73,57]","143"
"283","2172","3","22","1","40","1","1581415168","1581415055","73","[76,72,74,25,10,18,79,64,24,53,65,4,29,71,77,12,15,5,70,19,41,94,96,66,100]","42.9"
"284","2163","3","22","1","1","1","1581415165","1581415055","73","[60,33,12]","113.7"
"285","2193","3","22","1","78","1","1581415166","1581415055","73","[71,36,25,87,89,90,15,54,52,65,11,60,12,83,14,92,2,43,16,93,5,10,98,7,30,39,84,28,31,62,100,94,41,53,56,45,29,22,99,19,44,80,57,13,75,61,73,37,50]","304.6"
"286","2199","3","22","1","18","1","1581415147","1581415055","73","[15,26,40,8]","182.9"
"287","2166","3","22","1","49","1","1581415154","1581415055","73","[100,58]","107"
"288","2150","3","22","1","83","1","1581415161","1581415055","73","[98,49,97,85]","85.2"
"289","2153","3","22","1","70","1","1581415155","1581415055","73","[40]","154"
"290","2151","3","22","1","85","1","1581415164","1581415055","73","[37,63,79,83,55,52,20,50,64]","2.4"
"291","2160","3","22","1","31","1","1581415161","1581415055","73","[50,88,77,78,33,63,53,90,71]","-195"
"292","2114","3","22","1","100","1","1581415159","1581415055","73","[72,74,7,82,49,64,63,20,5,12,78,10,97]","105.9"
"293","2133","3","22","1","74","1","1581415164","1581415055","73","[8,100,48,23,85,82]","52.7"
"294","2169","3","22","1","64","1","1581415163","1581415055","73","[8,48,100,1,17,67,13,58,3,23,43,40,27,55,97,16,30,85]","223"
"295","2103","3","22","1","42","1","1581415158","1581415055","73","[62,93,80,44]","130"
"296","2112","3","22","1","99","1","1581415169","1581415055","73","[72,33,78,16,97]","21.9"
"297","2115","3","22","1","8","1","1581415166","1581415055","73","[52,24,58,64,23,82,67,18,27,50,12,98,74,17,59,20,95,77,10,14,11,88,5,92,4,32,80,46,16,36,65,35,30,41,56,86,91,7]","1564.8"
"298","2197","3","22","1","96","1","1581415148","1581415055","73","[7,55,12]","109.5"
"299","2179","3","22","1","94","1","1581415168","1581415055","73","[78,80,40]","109.9"
"300","2155","3","22","1","45","1","1581415146","1581415055","73","[73,78,65]","117.3"
"301","2182","4","22","1","76","1","1581415749","1581415545","114","[48,42,49,67,24,96,75,41,83,59,90,72,36,99,57]","-170.1"
"302","2168","4","22","1","7","1","1581415748","1581415545","114","[16,58,83,15,52,24,69,75,100,49,91,73,36,97,88,40,46,48,82,4]","92.1"
"303","2101","4","22","1","95","1","1581415743","1581415545","114","[63,57,89,92,11,94,97,93]","138.2"
"304","2200","4","22","1","58","1","1581415733","1581415545","114","[14,75]","200.9"
"305","2169","4","22","1","37","1","1581415748","1581415545","114","[24,98,30,95,79,17,55,28,81,92,73,40,77,82,72,64,43,76,75,100,36,90,41,86]","-154"
"306","2125","4","22","1","36","1","1581415745","1581415545","114","[15,35,31,72,8,17,71,75,85,13,97,99,28,20,53,78,81,63,10,73,77,74,43,66,52,88,12,48,6,80,23,32,58,76,9,7,93,4,44,50,79,40,25,29,21,37,65,94,2,45,41,70,11,64,56,34,30,38,49,67,92,51]","-393.3"
"307","2146","4","22","1","5","1","1581415736","1581415545","114","[75,22,78]","200.9"
"308","2183","4","22","1","94","1","1581415750","1581415545","114","[55,60,33,99]","49"
"309","2166","4","22","1","60","1","1581415733","1581415545","114","[72,36,1,90,56,39,94]","196.9"
"310","2129","4","22","1","25","1","1581415746","1581415545","114","[89,86,52,66,2,76,34,29,5,99,43,10,17,48,73,60,65,57,39,81,20,23,78,94,26,42,64,84,98,47]","-172"
"311","2191","4","22","1","59","1","1581415750","1581415545","114","[49,75,10,95]","268.5"
"312","2184","4","22","1","96","1","1581415748","1581415545","114","[71,36,24,63,15,98,49,54,89,97,93,82,69,4,13,48,76,3,56,6,72,58,84,94,26,90,95,39,75,1,65]","345.5"
"313","2159","4","22","1","65","1","1581415734","1581415545","114","[58,17,8,72,10,24,40,96,93]","101.2"
"314","2139","4","22","1","2","1","1581415744","1581415545","114","[91,1,94,83,70,82,80,25]","55.8"
"315","2154","4","22","1","91","1","1581415742","1581415545","114","[75]","200.9"
"316","2113","4","22","1","19","1","1581415748","1581415545","114","[91,72,86,32,48,94,23,90,41]","-54.1"
"317","2136","4","22","1","48","1","1581415747","1581415545","114","[72,64,74,71,30,98,94,96,100,4,73,13,92,89,29,75,82,19,76,9,36,11,12,7,66,38]","-370.2"
"318","2119","4","22","1","38","1","1581415748","1581415545","114","[49,21,79,10,71,82,52,31,75,81,59,17,29,24,54,30,33,22,87,97,15,5,60,39,23,90]","-102.6"
"319","2181","4","22","1","46","1","1581415747","1581415545","114","[58,47,72,7,98,42,75]","82.2"
"320","2189","4","22","1","27","1","1581415750","1581415545","114","[76,94,48,59,78,83,26,1,36,82,56,42,91]","186"
"321","2170","4","22","1","82","1","1581415736","1581415545","114","[25,36,63,79,90,98,96,67,3,12,7,19,37,62,18,58,64,20,52,92,30,83,49,11,69,39,94,75]","-181.3"
"322","2116","4","22","1","87","1","1581415746","1581415545","114","[8,17,48,1,24,94,70]","172"
"323","2137","4","22","1","88","1","1581415749","1581415545","114","[35,83,71,100,80,31,74,14,58,53,34,77,62,3,29,21,13,67,44,32,12,68,54,4,7,36,66,25,61,73,23,43,6,9,40]","-524.7"
"324","2135","4","22","1","32","1","1581415732","1581415545","114","[41,19,100,44,49,36,53,88,94,14,9,67,75]","-224.7"
"325","2156","4","22","1","49","1","1581415724","1581415545","114","[8,96,85,38,31,28,33,71,59,13,72,75,92,83,34,89,29,67,12,76,48,41,7,21,24,44,23,69,32,30,82,17,5,36]","-300.5"
"326","2131","4","22","1","20","1","1581415721","1581415545","114","[75,53]","200.9"
"327","2180","4","22","1","35","1","1581415744","1581415545","114","[23,83,6,43]","42.6"
"328","2176","4","22","1","56","1","1581415743","1581415545","114","[1,8,17,90,76,42,57,55,64,5,82,48,71,89,37]","175.7"
"329","2163","4","22","1","52","1","1581415747","1581415545","114","[89,75,33,25]","137.3"
"330","2142","4","22","1","18","1","1581415746","1581415545","114","[83,68,36,55,4,45]","108.5"
"331","2179","4","22","1","41","1","1581415747","1581415545","114","[84,98,25,45,94,95,21,89,70,42,11,66,31,85,8,20,52,12,44,67,19]","82.8"
"332","2171","4","22","1","45","1","1581415742","1581415545","114","[14,3,50,61,51,81,20,11,13]","145.7"
"333","2102","4","22","1","17","1","1581415743","1581415545","114","[75]","200.9"
"334","2105","4","22","1","89","1","1581415744","1581415545","114","[83,49]","121.7"
"335","2148","4","22","1","70","1","1581415741","1581415545","114","[1,48,56,98,83]","186"
"336","2165","4","22","1","66","1","1581415691","1581415545","114","[83,75]","137.2"
"337","2196","4","22","1","22","1","1581415750","1581415545","114","[58,64,56,1,11,65,75,33,85]","200.9"
"338","2192","4","22","1","54","1","1581415745","1581415545","114","[1,8,82,61,96,31,62]","168.5"
"339","2124","4","22","1","67","1","1581415746","1581415545","114","[66,14,31,75,91,85,95,3,41]","176.4"
"340","2157","4","22","1","34","1","1581415739","1581415545","114","[15,31,98,55,75,100,74,1,3,25,33,22,10,62]","78.3"
"341","2122","4","22","1","33","1","1581415749","1581415545","114","[1,8,28,91,51]","139.5"
"342","2127","4","22","1","77","1","1581415748","1581415545","114","[92,75,84,31,52,10,95,12,90,21]","123.9"
"343","2133","4","22","1","21","1","1581415722","1581415545","114","[1,100,17,10,28,75,85,29,77]","7.5"
"344","2174","4","22","1","53","1","1581415747","1581415545","114","[8,64,100,89,17,51,52,58,54,91,88,11,25,34,74,31,27,44,41]","103"
"345","2185","4","22","1","74","1","1581415720","1581415545","114","[95,79,8,34,88,92,31]","24.5"
"346","2188","4","22","1","62","1","1581415749","1581415545","114","[14,68,80,45,13,1,50]","6.7"
"347","2130","4","22","1","86","1","1581415739","1581415545","114","[41,75]","200.9"
"348","2164","4","22","1","15","1","1581415750","1581415545","114","[41,1,98,47,16,7]","42.8"
"349","2162","4","22","1","81","1","1581415750","1581415545","114","[48,84,37,17,91,92,53,90,20,56,55,96,72]","36.9"
"350","2107","4","22","1","40","1","1581415735","1581415545","114","[64,24,72,87,35,37,96,43,89,65,99,7,36,97]","-249"
"351","2167","4","22","1","13","1","1581415748","1581415545","114","[31,100,79,36,12,83]","47.2"
"352","2141","4","22","1","4","1","1581415746","1581415545","114","[84,82,69,83,42,7,14,27,70,35]","51.9"
"353","2153","4","22","1","64","1","1581415731","1581415545","114","[76,39,90,37]","89.8"
"354","2123","4","22","1","42","1","1581415554","1581415545","114","[76]","168"
"355","2138","4","22","1","75","1","1581415738","1581415545","114","[15,98,90,24,96,82,13,71,8,17,59,77,20,52,9,51,100,28,34,73,38,97,30,92,49,29,67,21,43,76,48,91,79,83,23,7,5,22,36,44,12,69,27,65,78,60,63,64,11,68,66,39,57,37,81,88,56,55,45,14,86,80,18,6,32,58]","2374.1"
"356","2187","4","22","1","97","1","1581415749","1581415545","114","[17,95,33,78,96,1,22,15,36,92,24,99,16,7,26,84,47,46,58,40,65,87]","152.1"
"357","2158","4","22","1","9","1","1581415748","1581415545","114","[84,41,96,77,56,29,71,48,79,32,38,88,75]","-21.2"
"358","2126","4","22","1","51","1","1581415748","1581415545","114","[91,95,59,15,8,11,16,70,74,75,81,34,38,86]","200.9"
"359","2117","4","22","1","55","1","1581415634","1581415545","114","[36,90,94,65]","196.9"
"360","2149","4","22","1","71","1","1581415745","1581415545","114","[15,31,97,37,14,95,58,17,33,21,92,75,96,83,88,94,90,34,85,8,91,13,26,55,81,19,63,48,80,38,44,100,67,29,79,59,39,66,49,89,72]","-366.3"
"361","2110","4","22","1","24","1","1581415747","1581415545","114","[37,96,40,87,99,7,49,76,23,6,75,90,83]","-94.3"
"362","2144","4","22","1","3","1","1581415749","1581415545","114","[64,21,41,83,71]","186"
"363","2173","4","22","1","31","1","1581415744","1581415545","114","[76,64,1,56,83,74]","131.4"
"364","2109","4","22","1","99","1","1581415739","1581415545","114","[24,65,63,81]","100.5"
"365","2104","4","22","1","11","1","1581415707","1581415545","114","[75]","200.9"
"366","2121","4","22","1","1","1","1581415545","1581415545","114","[]","0"
"367","2134","4","22","1","63","1","1581415749","1581415545","114","[90,99]","110.6"
"368","2178","4","22","1","61","1","1581415744","1581415545","114","[39,41,2,83,88,100]","41.7"
"369","2132","4","22","1","12","1","1581415748","1581415545","114","[64,85,20,70,75,66,28]","200.9"
"370","2152","4","22","1","100","1","1581415744","1581415545","114","[82,91,31,79,88,28,41,67,99,74,83,53,34,43,48,23,75,7,12,3,4,90,26,77,32,36,57,10,71,87,5,18,11,72,51,56,47,98,37,21,85,13,15,95,1,39,96,42,61,14]","-312.5"
"371","2198","4","22","1","26","1","1581415700","1581415545","114","[42,96,98,16,1]","168.5"
"372","2111","4","22","1","78","1","1581415749","1581415545","114","[17,91,75,90,20]","200.9"
"373","2145","4","22","1","28","1","1581415745","1581415545","114","[8,38,49,69,100,1,41,60,33,21,17,37,85,82,86,11,61,45,10,39,67,89,51,63]","106.5"
"374","2108","4","22","1","30","1","1581415742","1581415545","114","[98,15,23,75,49,38]","-26.1"
"375","2175","4","22","1","92","1","1581415749","1581415545","114","[75,49,79,8]","9.4"
"376","2103","4","22","1","16","1","1581415742","1581415545","114","[7,15]","91.4"
"377","2195","4","22","1","69","1","1581415692","1581415545","114","[98,75]","200.9"
"378","2120","4","22","1","79","1","1581415750","1581415545","114","[8,48,1,17,63,84,91,39,55,51,57,10,95,61,60,90,22,69,78,59,5,20,92,89,75]","123.4"
"379","2114","4","22","1","68","1","1581415748","1581415545","114","[72,25,98,15,76,63,36,35,18,70,44,77,12,65,93,56,62,86,39,1,83,57,75,33,90,26,95,10,99,14,87,54]","29.4"
"380","2186","4","22","1","10","1","1581415748","1581415545","114","[8,59,20,33,11,91,57,5,22]","143.9"
"381","2128","4","22","1","47","1","1581415711","1581415545","114","[46,73,97,51,30,63,82,15]","-3.9"
"382","2140","4","22","1","8","1","1581415747","1581415545","114","[29,92,49]","98.9"
"383","2143","4","22","1","39","1","1581415750","1581415545","114","[1,90,84,91,26,5,93,16,69,64,20,55,81,99,42]","116"
"384","2106","4","22","1","93","1","1581415660","1581415545","114","[15,96,83,72,43]","-13.7"
"385","2197","4","22","1","85","1","1581415743","1581415545","114","[31,49,100,8,10,95]","114.8"
"386","2115","4","22","1","23","1","1581415746","1581415545","114","[41,35,30,49,24,38,36,19,82,100,25,90,88,75]","-348.1"
"387","2194","4","22","1","84","1","1581415712","1581415545","114","[98,96,1]","90.2"
"388","2193","4","22","1","83","1","1581415745","1581415545","114","[15,71,98,25,18,88,44,27,41,96,7,33,38,49,53,26,43,2,89,34,73,6,68,62,12,36,93,65,56,42,39,91,100,14,99,61,66,17,45,80,31,4,10,70,75,81,28,97,90,35,16,86,20,82,87,3,52,5,72,13,1,76,24]","671.7"
"389","2161","4","22","1","80","1","1581415739","1581415545","114","[14,69,31,88,50,63,98,8,91,85,41,51,67,66,62,83,3,4,35,2,79,77,21,73,30,61,86,75]","-22.3"
"390","2118","4","22","1","90","1","1581415749","1581415545","114","[63,36,25,98,82,60,81,55,57,95,61,65,73,97,92,91,39,20,51,85,74,8,75,100,83,96,48,30,19,24,56,1,69,89,13,71,76,37,42,99,87,26,84,23,5,62,31,53]","741.6"
"391","2190","4","22","1","72","1","1581415746","1581415545","114","[1,46,82,90,19,49,76,48,33,71,73,40,4,63,64,81,30,26,100,42,36,7,83,43,35,87,24,93,41,9,96]","-452.1"
"392","2199","4","22","1","44","1","1581415726","1581415545","114","[76,31,83,32,19,99,74]","115.4"
"393","2155","4","22","1","29","1","1581415750","1581415545","114","[49,25,91,75,37,88]","5.5"
"394","2151","4","22","1","98","1","1581415747","1581415545","114","[96,84,99]","90.2"
"395","2177","4","22","1","73","1","1581415748","1581415545","114","[76,33,92,56,83,72]","117.5"
"396","2112","4","22","1","43","1","1581415740","1581415545","114","[100,83,75,71,36,37,48,40,82,65,25,72,93,44,88]","-310.5"
"397","2160","4","22","1","6","1","1581415737","1581415545","114","[24,14,31,83,61,96,53,38,36,35,75,88]","-154"
"398","2150","4","22","1","50","1","1581415740","1581415545","114","[84,36,10,92]","167.7"
"399","2147","4","22","1","57","1","1581415746","1581415545","114","[39,90]","175.7"
"400","2172","4","22","1","14","1","1581415748","1581415545","114","[79,67,50,1,54,60,45,56,36,5,83,3,86,25,53,41,4,93,66,31,17,44,11,61,74,32,68,27,16,15,2,18,35,73,100,62,80,70]","-75.2"
"401","2166","5","22","1","55","1","1581416328","1581416098","205","[79,100,1,17,59,82,29,36,71,16,8,31,61,35,95,83,80]","89.4"
"402","2183","5","22","1","59","1","1581416327","1581416098","205","[71,28,8,64,67]","221.5"
"403","2122","5","22","1","98","1","1581416281","1581416098","205","[1,8,48,100,96,37]","171.2"
"404","2165","5","22","1","82","1","1581416215","1581416098","205","[88,67]","148.7"
"405","2185","5","22","1","40","1","1581416273","1581416098","205","[78,67]","143.2"
"406","2125","5","22","1","3","1","1581416327","1581416098","205","[37,72,16,80,47,95,67,54,56,77,5,97,50,55,10,51,12,98,94,96,49,63,7,100,61,58,81,46,41,19,15,66,65,43,88,82,25,73,62,33,42,38,24,93,34,39,52,83,91,70,30,36,4,53,69,2]","-77.3"
"407","2142","5","22","1","72","1","1581416266","1581416098","205","[14,29,59]","181.7"
"408","2105","5","22","1","92","1","1581416326","1581416098","205","[47,68,67]","152"
"409","2154","5","22","1","95","1","1581416328","1581416098","205","[58,60,90,83,35,36,33,71,25,92,73,82,57,65,67]","221.5"
"410","2163","5","22","1","8","1","1581416312","1581416098","205","[67,16,13]","171.6"
"411","2193","5","22","1","29","1","1581416328","1581416098","205","[72,76,83,92,66,7,44,63,74,3,51,96,19,43,47,84,67,97,75,40,36,90,33,25,55,16,93,12,2,85,89,58,45,42,27,31,49,61,46,24,71,73,39,21,86,53,34,32,62,88,100,48,79,68,60]","89.1"
"412","2171","5","22","1","86","1","1581416315","1581416098","205","[19,29]","181.7"
"413","2147","5","22","1","94","1","1581416305","1581416098","205","[67]","221.5"
"414","2113","5","22","1","24","1","1581416273","1581416098","205","[14,53,95,36,59,93,96]","84.9"
"415","2118","5","22","1","89","1","1581416327","1581416098","205","[15,83,75,63,36,71,98,85,30,8,47,53,69,67,56,97,80,42,74,7,44,10,28,11,24,61,31,35,9,77,60,79,4,72,2,29,90,76,46,45,58,19,17,5,78,13,23,59,14,100,95,65,41,50,86,43,34,51,22,94,52,55,49,12,96,26,27,68,18,84]","-458.6"
"416","2126","5","22","1","39","1","1581416322","1581416098","205","[36,25,90,15,1,12,5,71,88,94]","185.5"
"417","2188","5","22","1","50","1","1581416328","1581416098","205","[59,19,33,68,47,12,60,53]","120.5"
"418","2169","5","22","1","7","1","1581416327","1581416098","205","[47,97,29,56,52,99,82,33,94,3,54,74,32,89,68,93,66,96,67]","-145.3"
"419","2102","5","22","1","21","1","1581416270","1581416098","205","[72,8,55,67]","221.5"
"420","2190","5","22","1","99","1","1581416328","1581416098","205","[17,8,48,100,96,13,26,14,32,47,73,40,57,65,58,37,3,69,62,45,60,6,74,82,61,67,36,29,55]","94.7"
"421","2196","5","22","1","64","1","1581416328","1581416098","205","[1,8,17,20,67,84]","152.4"
"422","2200","5","22","1","44","1","1581416294","1581416098","205","[47,67]","221.5"
"423","2164","5","22","1","51","1","1581416327","1581416098","205","[74,59,27]","175.9"
"424","2189","5","22","1","65","1","1581416328","1581416098","205","[72,24,90,19,25,10,36,93,92,68,58,100,8,67,30]","152"
"425","2141","5","22","1","48","1","1581416325","1581416098","205","[8,100,64,14,91,67,59]","221.5"
"426","2119","5","22","1","30","1","1581416326","1581416098","205","[51,17,75,92,77,82,56,61,81,67,91,54,88,100,84]","3.6"
"427","2159","5","22","1","19","1","1581416328","1581416098","205","[1,80,29,87,72]","109.1"
"428","2156","5","22","1","34","1","1581416310","1581416098","205","[27,57,74,16,94,12,95,29,68,5,67]","1.2"
"429","2192","5","22","1","46","1","1581416327","1581416098","205","[33,67]","221.5"
"430","2176","5","22","1","16","1","1581416317","1581416098","205","[85,75,99,36,31,20,60,84,50,18]","190"
"431","2175","5","22","1","53","1","1581416321","1581416098","205","[27,24,67,58]","251.7"
"432","2123","5","22","1","15","1","1581416175","1581416098","205","[67,45,61]","221.5"
"433","2187","5","22","1","88","1","1581416322","1581416098","205","[97,57,81,21,83,70,31,20,91,42,29,49,14,10,82,33,69,35,16,48,100,5,92,52,39,94,55,62,68,99,22,60,36,65,96,98,6,9,3,80,15,45,95,84,90,79,58,71,89,73,47,85,37,30,67,61,27,32]","-93.7"
"434","2186","5","22","1","96","1","1581416328","1581416098","205","[1,8,48,100,17,60,81,36,26,40,58,55,39,86]","146.4"
"435","2152","5","22","1","74","1","1581416322","1581416098","205","[83,47,95,58,30,61,3,98,91,70,52,62,97,80,42,60,59,9,36,33,24,85,49,35,25,15,5,28,21,67]","221.5"
"436","2114","5","22","1","2","1","1581416316","1581416098","205","[24,46,70,9,80,47,64,83,19,76,22,96,90,25,33,93,92,71,36,16,12,97,29,98,67,27,68]","1.2"
"437","2167","5","22","1","49","1","1581416328","1581416098","205","[36,47,8,19,88,48,79,67,68,87,41,27]","-33.5"
"438","2168","5","22","1","5","1","1581416327","1581416098","205","[22,81,51,30,97,45,43,67,19,92,100,84,29]","152.4"
"439","2115","5","22","1","23","1","1581416327","1581416098","205","[47,97,14,27,78,45,68,99,13,61,28,71,67,89,26,36,75,79,100,77,25,84]","-224.2"
"440","2195","5","22","1","31","1","1581416293","1581416098","205","[72,36,14,67]","221.5"
"441","2180","5","22","1","43","1","1581416327","1581416098","205","[2,26,38,15]","95.9"
"442","2194","5","22","1","90","1","1581416324","1581416098","205","[67]","221.5"
"443","2133","5","22","1","35","1","1581416325","1581416098","205","[80,85,61,88,36,55,14,67,75,82]","65.5"
"444","2178","5","22","1","57","1","1581416321","1581416098","205","[68,27,52]","193.5"
"445","2108","5","22","1","42","1","1581416282","1581416098","205","[64,97,88,62,91,29,67,36]","196.9"
"446","2144","5","22","1","20","1","1581416281","1581416098","205","[25,72,79,59,100,67]","221.5"
"447","2109","5","22","1","75","1","1581416324","1581416098","205","[55,67,85]","221.5"
"448","2184","5","22","1","97","1","1581416324","1581416098","205","[47,95,82,44,100,42,10,12,92,36,33,98,80,16,54,71]","130.6"
"449","2101","5","22","1","91","1","1581416328","1581416098","205","[17,71,49,60,12,63,77,22,88,69,61,83,42]","108.5"
"450","2181","5","22","1","45","1","1581416325","1581416098","205","[76,64,58,72,36,98,25,90,20,40,55,93,16,12,92,83,71,28,91,67,19]","221.5"
"451","2182","5","22","1","77","1","1581416317","1581416098","205","[22,24,82,81,53,2,49,60,84,29,67,9,30,5]","-3.5"
"452","2174","5","22","1","14","1","1581416328","1581416098","205","[16,20,91,8,85,1,63,100,68,4,86,44,43,33,65,51,90,58]","193.5"
"453","2116","5","22","1","76","1","1581416322","1581416098","205","[91,84,20,6]","190"
"454","2112","5","22","1","37","1","1581416325","1581416098","205","[72,3,69,98,95,30,52,60,84,67,99,85,48,93,54,81,32,22,68]","24.3"
"455","2143","5","22","1","52","1","1581416322","1581416098","205","[72,8,37,17,100,1,80,21,94,15,63,98,96,99,81,70,46,47,10,88,95,69,71,83,45,82,48]","113.1"
"456","2138","5","22","1","67","1","1581416325","1581416098","205","[25,98,72,63,36,97,75,47,54,58,79,62,20,91,48,66,94,78,95,44,26,29,69,61,87,37,84,55,23,59,76,56,60,30,40,13,12,45,27,68,92,28,3,10,82,99,81,22,5,11,14,1,89,46,19,64,18,83,16,21,15,39,42,74,2,96,80,85,71,77,8,50,35,52,9,51,34,43,24,100,53,57,86,49,17,31,41,33,90,4,32,7,73,70,88,65,38]","4218.6"
"457","2134","5","22","1","81","1","1581416325","1581416098","205","[68,98,88,96,95,37]","196.6"
"458","2170","5","22","1","17","1","1581416324","1581416098","205","[80,84,20,1]","111.7"
"459","2153","5","22","1","12","1","1581416251","1581416098","205","[29,67]","148.2"
"460","2103","5","22","1","84","1","1581416327","1581416098","205","[23,30,77,49,68,63,78,6,88,24,89,66,81,37,98,60,45,20,1,11,29,28,74,61,92,76,13,5,26,93,14,18,44,64,21,17,25,54,48,9,12,56,90,31,72,33,16,51,67]","330.2"
"461","2145","5","22","1","93","1","1581416320","1581416098","205","[17,8,1,21,26,81,100,19,32,96,63,99,24,60,91,82,33,15,80,95,46,40,38,51]","-3.5"
"462","2191","5","22","1","70","1","1581416324","1581416098","205","[71,83,16,75,93,36,33,67,51,58]","221.5"
"463","2157","5","22","1","66","1","1581416312","1581416098","205","[47,97,95,36,84,96,98,86,53,59,14,93,39]","190"
"464","2106","5","22","1","25","1","1581416263","1581416098","205","[64,97,49,84,68]","126.9"
"465","2149","5","22","1","68","1","1581416327","1581416098","205","[72,76,36,79,47,97,27,95,24,84,23,5,71,26,85,1,9,80,18,81,44,91,50,10,89,55,19,20,59,11,64,35,40,83,57,3,33,73,93,41,58,70,75,21,16,25,31,100,42,56,7,49,54,69,14,8,52,17,51,65,46,53,86,4,34,96,98,15,99,90,32,2,29,39,30,61,92,38,48,94,28,22,45,13,37,82,67,88,62]","0.4"
"466","2128","5","22","1","83","1","1581416281","1581416098","205","[17,33,48,62,88,39,35,61,22,67,98,80]","316.5"
"467","2158","5","22","1","63","1","1581416325","1581416098","205","[84,67,56]","74"
"468","2107","5","22","1","4","1","1581416301","1581416098","205","[64,80,75,74,22,61,27,11,86,79,89,13,68,36]","116.9"
"469","2140","5","22","1","85","1","1581416328","1581416098","205","[8,97,3,35,67,47,100,21]","144"
"470","2127","5","22","1","58","1","1581416323","1581416098","205","[68,67]","152"
"471","2160","5","22","1","78","1","1581416302","1581416098","205","[47,84,99,26,40,67,27,23,74,6,13,5,14,89,22,16]","-208.9"
"472","2148","5","22","1","79","1","1581416297","1581416098","205","[47,16,67,80]","221.5"
"473","2121","5","22","1","71","1","1581416221","1581416098","205","[36,80,97]","52"
"474","2155","5","22","1","22","1","1581416321","1581416098","205","[47,60,88,67,84]","148.7"
"475","2104","5","22","1","100","1","1581416299","1581416098","205","[67]","221.5"
"476","2162","5","22","1","62","1","1581416328","1581416098","205","[82,36,80,56,88,29,54,58,25,31,99,3]","-23.1"
"477","2161","5","22","1","11","1","1581416328","1581416098","205","[16,84,76,64,25,72,36,40,12,91,71,82,14,62,8,47,27,63,68,9,1,5,92,53,67,95,13,74,61,18]","6.5"
"478","2137","5","22","1","26","1","1581416326","1581416098","205","[79,78,9,15,61,67,43,69,81,90,5,89,46,68,14,84,17,11,23,21,77,60,59,63,27,93]","-51.2"
"479","2111","5","22","1","1","1","1581416323","1581416098","205","[85,9,84,59,20,28,40,75,79,92,17,66]","111.7"
"480","2131","5","22","1","54","1","1581416319","1581416098","205","[67,97,52,100,71]","266.1"
"481","2151","5","22","1","69","1","1581416328","1581416098","205","[67,68,88,28]","33.7"
"482","2139","5","22","1","87","1","1581416326","1581416098","205","[47,36,27,65,67,5,74,89,41,29,19]","83.7"
"483","2124","5","22","1","56","1","1581416324","1581416098","205","[21,44,52,59,8,67,100,25,82,81,84,68,46,20,63,64,74,48]","7.6"
"484","2179","5","22","1","27","1","1581416328","1581416098","205","[83,86,89,68,3,69,50,31,87,60,36,11,45,13,82,92,98,9,40,15,71,49,63,76,17,99,19,26,78,23,47,12,29,53,59,28,66,24,2,72,58,93,30,67,5,34,91,95,100,75,54,73,62,10,61,8,14,6,80,96,51,79,94,22,43,37,88,97,70]","-439.7"
"485","2146","5","22","1","10","1","1581416325","1581416098","205","[60,67,5,63]","161.2"
"486","2199","5","22","1","73","1","1581416309","1581416098","205","[47,67]","221.5"
"487","2177","5","22","1","6","1","1581416314","1581416098","205","[72,25,39,60,52,28,69,91,13,14,16,62,84]","190"
"488","2135","5","22","1","38","1","1581416312","1581416098","205","[13,32,81,93,19,96,68,43,3,52]","-47.9"
"489","2120","5","22","1","13","1","1581416324","1581416098","205","[8,49,100,58,47,64,97,51,84,35,39,63,12,68,28,25,92]","70.5"
"490","2110","5","22","1","18","1","1581416286","1581416098","205","[68,89,84,67,72]","2"
"491","2129","5","22","1","60","1","1581416325","1581416098","205","[49,81,89,86,83,92,66,52,28,31,84,30,98,37,3,39,15,79,50,56,10,43,36,35,5,29,80,59,61,42,62,97,71,19,38]","-116.6"
"492","2150","5","22","1","41","1","1581416319","1581416098","205","[8,100,25,49,90,36,91,73,2,52,21,80,56,10,94,54,42,71,15,83,95,93,48,27,43,12,68,51,87]","47"
"493","2132","5","22","1","9","1","1581416326","1581416098","205","[80,82,59,8,13,50,75,28,55,67,63,64,45,76,79,46,10,84,77,61,68,88]","-107.3"
"494","2136","5","22","1","80","1","1581416309","1581416098","205","[75,71,36,47,100,55,83,91]","91.3"
"495","2172","5","22","1","32","1","1581416328","1581416098","205","[1,8,100,85,49,82,26,80,19,44,70,71,56,62,38,65,72,73,37,17,98,30,3,74,92,60,95,33,66,7,97,36,52,24,29,58,81,68,14,31,90,93,51,27,50,77,96,67,22,54,88]","-115.4"
"496","2130","5","22","1","33","1","1581416310","1581416098","205","[67]","221.5"
"497","2173","5","22","1","47","1","1581416323","1581416098","205","[30,69,54,71,21,100,36,40,96,90,55,19,10,61,82,67,6]","221.5"
"498","2198","5","22","1","36","1","1581416327","1581416098","205","[100,91,85,75,8,33,67,14]","221.5"
"499","2197","5","22","1","61","1","1581416317","1581416098","205","[98,31,9,88,21,8,84,14,85]","48.2"
"500","2117","5","22","1","28","1","1581416317","1581416098","205","[72,69,84,64,68]","53.3"
"501","2166","6","22","1","13","1","1581416848","1581416561","230","[47,20,18,59,38,61,21,19,64,83,100]","78"
"502","2122","6","22","1","22","1","1581416801","1581416561","230","[79,100,24,1,13,15,75,70]","145.4"
"503","2183","6","22","1","15","1","1581416846","1581416561","230","[24,64,84,37,61,11]","222.4"
"504","2196","6","22","1","33","1","1581416849","1581416561","230","[18,64]","222.4"
"505","2167","6","22","1","59","1","1581416847","1581416561","230","[72,25,64,71,51,22,93,36,68,17,33,58,15,91,13]","74.9"
"506","2182","6","22","1","63","1","1581416829","1581416561","230","[8,48,1,86,51,95,52,45,93,83,82,36,59,27,77,96,90,35,30,79,15,64]","-43.6"
"507","2154","6","22","1","10","1","1581416706","1581416561","230","[64]","222.4"
"508","2186","6","22","1","100","1","1581416849","1581416561","230","[8,1,29,97,67,18,10,86]","153.2"
"509","2142","6","22","1","92","1","1581416712","1581416561","230","[69,19,18]","170"
"510","2194","6","22","1","37","1","1581416845","1581416561","230","[64,18,24]","195.2"
"511","2176","6","22","1","6","1","1581416851","1581416561","230","[9,49,1,18,76,21,65,12,14,17,74,69,38]","170"
"512","2200","6","22","1","84","1","1581416645","1581416561","230","[64]","222.4"
"513","2131","6","22","1","34","1","1581416847","1581416561","230","[80,82,17,64,2]","154.4"
"514","2105","6","22","1","29","1","1581416815","1581416561","230","[64]","222.4"
"515","2117","6","22","1","75","1","1581416847","1581416561","230","[86,23,33,51,8,13,39,5,36,78,90,87,96,91]","97.6"
"516","2121","6","22","1","19","1","1581416568","1581416561","230","[8]","0"
"517","2170","6","22","1","76","1","1581416838","1581416561","230","[15,64,56]","222.4"
"518","2163","6","22","1","44","1","1581416851","1581416561","230","[15,89,87,17,45,64,67,23]","113.8"
"519","2116","6","22","1","74","1","1581416844","1581416561","230","[98,73,59,39,15,27,62,9,7,35]","104"
"520","2171","6","22","1","3","1","1581416847","1581416561","230","[64,65,37,23]","222.4"
"521","2136","6","22","1","23","1","1581416845","1581416561","230","[76,15,88,72,64,87,62,67,14,48,1,44,16,34]","113.8"
"522","2123","6","22","1","5","1","1581416749","1581416561","230","[54,97,83,96]","183.7"
"523","2111","6","22","1","90","1","1581416845","1581416561","230","[8,15,36,41,22,87]","169.2"
"524","2138","6","22","1","27","1","1581416843","1581416561","230","[76,37,25,32,28,18,46,56,60,17,58,67,48,55,36,40,85,8,99,3,9,14,7,87,94,78,29,71,86,83,74,6,81,2,34,50,35,15,59,93,53,10,42,52,45,92,68,11,95,88,91,57,63,24,89,82,39,73,54,100,19,97,41,72,84,1,43,80,20,51,49,16,75,22,79,13,61,33,5,31,47,90,98,12,44,30,4,70,96,66,65,21,69,64,77,38,62]","-39.8"
"525","2125","6","22","1","89","1","1581416850","1581416561","230","[75,98,72,10,49,41,77,91,40,58,8,35,23,73,5,42,78,11,63,37,65,48,61,74,57,53,39,9,7,3,82,13,83,33,97,80,1,93,62,43,87,59,100,86,79,29,30,95,25,21,88,14,69,20,22]","-69.3"
"526","2109","6","22","1","98","1","1581416851","1581416561","230","[67,18]","134.5"
"527","2185","6","22","1","65","1","1581416825","1581416561","230","[89,64,91]","189.6"
"528","2104","6","22","1","62","1","1581416702","1581416561","230","[64]","222.4"
"529","2188","6","22","1","2","1","1581416850","1581416561","230","[73,1,4,70,34,92,94,21,19,18,13,89,72,98,45,38,17]","89.7"
"530","2124","6","22","1","53","1","1581416841","1581416561","230","[72,36,24,64,80,15,48,93,40,97,54,39,84,77,41,91,22,27]","83.2"
"531","2174","6","22","1","18","1","1581416851","1581416561","230","[72,29,8,84,38,26,10,68,23,76,51]","77.4"
"532","2128","6","22","1","38","1","1581416819","1581416561","230","[49,1,15,72,42,35,64,12,10,7,29,44,80,56,20,69,51,66,32,52,26,2,34,76,89,45,87,27]","-0.5"
"533","2180","6","22","1","81","1","1581416842","1581416561","230","[69,6,92]","170"
"534","2195","6","22","1","56","1","1581416849","1581416561","230","[64,1,98,37,61,24]","195.2"
"535","2192","6","22","1","88","1","1581416850","1581416561","230","[64]","222.4"
"536","2126","6","22","1","68","1","1581416823","1581416561","230","[18,70,82,39,50,62,8,65,10,9,80,97,90,64,22,31,77,91,30,75,73]","257.7"
"537","2102","6","22","1","55","1","1581416851","1581416561","230","[15,98,89,51,9,3,8,14,7,29,50,62,43,64]","222.4"
"538","2197","6","22","1","60","1","1581416811","1581416561","230","[72,76,64,98,89,93]","222.4"
"539","2157","6","22","1","52","1","1581416848","1581416561","230","[98,18,60,17,89,64,92,6,45]","222.4"
"540","2144","6","22","1","40","1","1581416824","1581416561","230","[98,15,64]","222.4"
"541","2110","6","22","1","85","1","1581416830","1581416561","230","[64]","222.4"
"542","2108","6","22","1","99","1","1581416831","1581416561","230","[71,97,31,15,87,60,64,27,89,51,83,73,74,96,58,53,86,33,3,22,39,54,49,11,79,46,35,25,45,36,43,29,62,84,50,76,80,78,82,63,91,7]","-111.3"
"543","2155","6","22","1","42","1","1581416840","1581416561","230","[64,73]","222.4"
"544","2156","6","22","1","11","1","1581416837","1581416561","230","[8,1,49,18,59,85,45,63,27,6,64,53,86,83,79]","31.6"
"545","2178","6","22","1","72","1","1581416840","1581416561","230","[64]","222.4"
"546","2143","6","22","1","86","1","1581416848","1581416561","230","[72,35,87,30,96,40,64,5,97,3,73,74,77,61,33,93,49,43,60,15,90,13,39,41,80,29,53,59,7,9,84,37,62,10,50]","244.8"
"547","2107","6","22","1","67","1","1581416790","1581416561","230","[17,48,1,44,27,81,98,24,23,21,18,56,12]","31.8"
"548","2189","6","22","1","96","1","1581416850","1581416561","230","[78,35,98,73,51,14,3,55,19,22,34,16,65,38,52,89,64]","222.4"
"549","2175","6","22","1","48","1","1581416850","1581416561","230","[67,16,64,17]","127.7"
"550","2165","6","22","1","78","1","1581416850","1581416561","230","[64,86]","222.4"
"551","2181","6","22","1","36","1","1581416850","1581416561","230","[76,64,24,37,72,15,84,35,51,47,58,60,40,53,59,41,75,54,42,80,45,78,91,73,61,97,5,1,74,93,83,33,85,62,98,34,100,86,14,79,48,3,16,7,9,23,39,4,96,68,31,6,12,18,67,17,92,49,55,22,70,77,2,56,10,50,43,90,52,26,99,28,94,57,88,44,8,95,71,30,19]","201.2"
"552","2133","6","22","1","12","1","1581416848","1581416561","230","[64,18,27,67,69,2,25,34]","56.2"
"553","2135","6","22","1","14","1","1581416840","1581416561","230","[27,45,76,98]","181.5"
"554","2146","6","22","1","70","1","1581416838","1581416561","230","[18,93,94,83,77,35,8,32]","109.2"
"555","2112","6","22","1","46","1","1581416850","1581416561","230","[45,64,63,55,58,91,42,21,6,28,57,60,74,59,78,49,54,88,8,89,35,25,83,36,82,29,99,85,27,66,44,65,72,37,15,33,16,32,86,5,53,13,75,97,100,61,19,38,43,73]","-314.4"
"556","2147","6","22","1","77","1","1581416846","1581416561","230","[64]","222.4"
"557","2148","6","22","1","43","1","1581416851","1581416561","230","[13,64,19]","222.4"
"558","2191","6","22","1","97","1","1581416834","1581416561","230","[100,19,22,38,20,18,65,64,92,24]","373"
"559","2139","6","22","1","57","1","1581416839","1581416561","230","[96,86,11,64,47,37,27,58,65,89,21]","124.1"
"560","2151","6","22","1","25","1","1581416846","1581416561","230","[6,64,74,35,83]","151.2"
"561","2159","6","22","1","73","1","1581416841","1581416561","230","[1,15,56,36]","169.2"
"562","2119","6","22","1","91","1","1581416851","1581416561","230","[73,100,93,29,97,48,8,38,22,62,95,67,64,83]","151.2"
"563","2114","6","22","1","69","1","1581416846","1581416561","230","[8,100,37,1,17,48,87,61,78,49,81,3,70,14,92,7,2,52,20,12,38,62,16,22,5,19,18,21,9,10,84,35,43,44,4,6,27,32,98,83,64,36,45,80,24,75]","476.4"
"564","2168","6","22","1","8","1","1581416847","1581416561","230","[25,42,29,89,66,74,80,47,87,77,22,41]","94.4"
"565","2179","6","22","1","31","1","1581416794","1581416561","230","[1,8,100,38,15,83,22,13]","183.7"
"566","2164","6","22","1","94","1","1581416848","1581416561","230","[1,19,17,64,26,98,100,24]","195.2"
"567","2184","6","22","1","20","1","1581416847","1581416561","230","[65,19,43,98,22,90,73,75,50,55,95,18,24,88,49,37,62,1,51,10,34,45,32,59,58]","172.7"
"568","2153","6","22","1","7","1","1581416799","1581416561","230","[64]","222.4"
"569","2172","6","22","1","82","1","1581416850","1581416561","230","[17,78,1,97,55,70,30,60,14,13,22,72,16,42,5,59,27,33,64,75,90,53,35,15,24,83,63,25,4,95,58,7,93,31,34,65]","-165.2"
"570","2127","6","22","1","49","1","1581416828","1581416561","230","[93,64,55]","222.4"
"571","2137","6","22","1","54","1","1581416850","1581416561","230","[84,80,36,3,32,58,8,49,50,29,67,48,10,44,93,39,78,89,57,46,27]","-28.8"
"572","2101","6","22","1","17","1","1581416850","1581416561","230","[93,18,70,48,84,90,91,50,27,92,95,76]","110.2"
"573","2177","6","22","1","71","1","1581416846","1581416561","230","[72,75,86,89,74,41,40,52,29,87,51,64,60]","222.4"
"574","2120","6","22","1","24","1","1581416848","1581416561","230","[8,1,59,51,13,61,100,72,98,34,6,76,17,68,81,14,74,93,42,71,56,18,10,94,37,50,41,16,49,84,33]","-62.5"
"575","2193","6","22","1","64","1","1581416841","1581416561","230","[72,83,86,10,36,58,48,53,60,35,40,54,42,29,41,17,8,9,59,55,97,44,14,93,3,92,7,52,28,23,94,82,84,43,80,16,65,38,18,20,56,27,57,1,21,12,99,30,22,90,68,26,62,6,2,13,24,46,37,89,50,15,25,66,71,31,5,76,49,33,73,11,95,88,85,19,70,87,77,81,98,78,51,69,47,96,75,45,39,91,32,4,63,100,34,74,61]","6065.2"
"576","2190","6","22","1","16","1","1581416845","1581416561","230","[8,49,18,1,82,75,100,80,24,15,61,47,22,48,57,60,51,89,29,26,54,3,42,97,12,50,64]","115.3"
"577","2161","6","22","1","4","1","1581416850","1581416561","230","[16,9,49,18,59,20,1,38,22,82,13,39,83,36,70,90,47,93,78,51,41,35,31,74,94,53,5,60,21,95,73,64]","1.3"
"578","2198","6","22","1","51","1","1581416814","1581416561","230","[1,21,97,100,77,80,10,29,89,5,22,65,8,18,98,64]","257.7"
"579","2152","6","22","1","45","1","1581416849","1581416561","230","[98,56,62,51,9,23,3,70,18,91,35,50,34,69,68,87,95,60,13,25,31,77,100,37,80,84,7,15,10,49,43,55,86,72,22,47,90,73,75,5,78,30]","101.4"
"580","2158","6","22","1","39","1","1581416834","1581416561","230","[15,93,44,64,29]","222.4"
"581","2130","6","22","1","50","1","1581416666","1581416561","230","[64]","222.4"
"582","2106","6","22","1","21","1","1581416849","1581416561","230","[64,46,24,95,97,88]","144.9"
"583","2150","6","22","1","47","1","1581416851","1581416561","230","[78,71,77,24,83,66,19]","107.5"
"584","2115","6","22","1","66","1","1581416851","1581416561","230","[8,100,42,46,19,32,1,21,89,45,68,18,65,20,38,53,83,58,85,92,31,47,64,57,27,6,69]","-9"
"585","2141","6","22","1","80","1","1581416851","1581416561","230","[75,64]","222.4"
"586","2103","6","22","1","95","1","1581416821","1581416561","230","[98,80,71,53,19,100,1,5,22,55,51,68,50,18,92,52,9,10,35,43,70,64]","222.4"
"587","2140","6","22","1","87","1","1581416850","1581416561","230","[55,83,95,75,96,70,77,5,31,47,22,36]","125.1"
"588","2173","6","22","1","93","1","1581416849","1581416561","230","[6,21,19,71,77,90,97,13,30,22,44,64,87,75,73]","222.4"
"589","2113","6","22","1","79","1","1581416840","1581416561","230","[15,37,86,82,87,83,13,30,53,4,22,93,21,75,57,3,32,49,36,55,58,90,11,27,23,19,47,99,46,89,63,98]","-154.7"
"590","2187","6","22","1","83","1","1581416827","1581416561","230","[63,86,96,37,78,91,87,94,100,24,85,19,5,22,9,54,42,10,29,30,13,47,4,74,14,55,90,21,73,39,93,70,31,61,41,27,35,36,71,51,52,45,95,68,50,34,66,79,59,88,6,99,49,53,28,46,57,75,11,76,17,58,33,77,89,72,38,69,92,81,2,25,97,60,82,20,26,44,65,12,23,1,48,18,67,98,8,32,80,16,62,84,15,40,7,56,3,43,64]","84.7"
"591","2160","6","22","1","26","1","1581416721","1581416561","230","[23,51,95,64,89,17,32]","147.9"
"592","2199","6","22","1","41","1","1581416849","1581416561","230","[10,19,64,61,35]","210.9"
"593","2134","6","22","1","1","1","1581416847","1581416561","230","[64,97,84,10]","222.4"
"594","2149","6","22","1","32","1","1581416841","1581416561","230","[50,62,60,40,54,6,21,1,85,70,34,14,66,3,30,81,92,52,63,22,19,82,76,56,38,13,4,61,18,2,97,47,65,20,5,90,49,72,53,15,75,84,12,83,31,41,58,98,8,80,73,77,69,68,10,37,9,7,71,89,48,55,35,16,86,43,44,26,87,100,45,24,23,51,91,96,88,93,67,33,95,17,42,29,39,46,36,79,59,78,27,94,57,64]","-124.7"
"595","2162","6","22","1","30","1","1581416847","1581416561","230","[17,19,90,70,87,75,83,78,22,4,36,45,91,77,47]","66.2"
"596","2118","6","22","1","58","1","1581416851","1581416561","230","[76,15,17,84,18,40,43,53,55,8,68,23,80,21,13,37,2,100,5,19,62,34,50,6,90,24,51,98,97,12,38,7,10,9,29,1,56,14,49,75,61,22,67,93,39,4,78,31,74,70,77,87,30,64,41,60]","222.4"
"597","2132","6","22","1","35","1","1581416851","1581416561","230","[14,9,87,41,27,13,31,74,80,29,77,72,12,91,67,1]","34.6"
"598","2145","6","22","1","61","1","1581416840","1581416561","230","[16,86,37,72,100,98,19,93,18,48]","82.2"
"599","2129","6","22","1","9","1","1581416718","1581416561","230","[64]","222.4"
"600","2169","6","22","1","28","1","1581416827","1581416561","230","[45,27,64,81,36,15,1,58,60,46,6,83,89,65,39,42,44,82]","-66.4"
