"id","id_subj","round","session","period","id_grp","grp","time","time_start","duration","links","payoff"
"1","872","1","9","1","40","1","1562661753","1562661693","64","[72,58,15,24,64,75,41,16,34,4,10,43,100]","467.9"
"2","890","1","9","1","78","1","1562661745","1562661693","64","[27,65,2,20]","0"
"3","853","1","9","1","38","1","1562661755","1562661693","64","[9,30,26,39]","467.9"
"4","833","1","9","1","4","1","1562661753","1562661693","64","[9,84,58,1,37,40]","208.7"
"5","856","1","9","1","57","1","1562661754","1562661693","64","[8,32,42,63,64]","102.5"
"6","828","1","9","1","50","1","1562661751","1562661693","64","[37,17,48,46,97,59,44]","208.7"
"7","892","1","9","1","95","1","1562661749","1562661693","64","[83,71,57,66,84,80,86]","0"
"8","855","1","9","1","68","1","1562661757","1562661693","64","[72,76,31,36,15,35,23,63,58,59,7,57]","-137.5"
"9","874","1","9","1","96","1","1562661755","1562661693","64","[71,63,36,98,50,69,15]","22.5"
"10","845","1","9","1","85","1","1562661757","1562661693","64","[1,97,100,71,76,32,39,47]","208.7"
"11","809","1","9","1","13","1","1562661756","1562661693","64","[75,80,32,58,66]","141.4"
"12","859","1","9","1","55","1","1562661752","1562661693","64","[58,79,64,76,17,80,46,24,15,35,36,18,44,3,89,70,86,33,27,2,52,28,20,4,65,29,41,42]","-412.1"
"13","864","1","9","1","65","1","1562661749","1562661693","64","[91,76,79]","0"
"14","854","1","9","1","66","1","1562661757","1562661693","64","[37,79,40,13,76]","348"
"15","834","1","9","1","48","1","1562661752","1562661693","64","[49,82,56]","262.6"
"16","893","1","9","1","42","1","1562661755","1562661693","64","[72,19,25,55,36,48,24,58,64,63,68,7]","102.5"
"17","841","1","9","1","62","1","1562661756","1562661693","64","[57,90,48,56,80]","0"
"18","894","1","9","1","39","1","1562661754","1562661693","64","[1,93,49,37,55,21,30,59,38,97,64,75]","102.5"
"19","865","1","9","1","31","1","1562661754","1562661693","64","[58,51,21,84,80,45,90,74,68,44,18,89,73,6,27,14]","-537.4"
"20","849","1","9","1","12","1","1562661757","1562661693","64","[48,94,59,41,80,7,18,91]","467.9"
"21","881","1","9","1","93","1","1562661745","1562661693","64","[37,1,48,58,78,97,60,70,59,26,39,5,7,86]","-137.5"
"22","819","1","9","1","2","1","1562661756","1562661693","64","[76,37,25,58,72,22]","208.7"
"23","807","1","9","1","59","1","1562661756","1562661693","64","[48,100,17,58,55,21,56,24,75,64,39,68,30]","-57.5"
"24","884","1","9","1","3","1","1562661757","1562661693","64","[9,80,71,47,97,38,55,27,18,87,16,62,78,35]","671.6"
"25","815","1","9","1","81","1","1562661756","1562661693","64","[79,100,98,11,76,13]","182.6"
"26","867","1","9","1","84","1","1562661756","1562661693","64","[71,98,31,36,43,19,83,58,90,68,42]","102.5"
"27","888","1","9","1","58","1","1562661754","1562661693","64","[55,14,68,33]","102.5"
"28","860","1","9","1","19","1","1562661756","1562661693","64","[37,88,84,42]","182.6"
"29","887","1","9","1","88","1","1562661750","1562661693","64","[71,24,19,54,15,78,83,70,66,49,11,35,20,34]","511.5"
"30","870","1","9","1","1","1","1562661756","1562661693","64","[18,56,93,59,99,30,5,45,47]","22.5"
"31","869","1","9","1","25","1","1562661748","1562661693","64","[77,42,2]","467.9"
"32","866","1","9","1","89","1","1562661754","1562661693","64","[57,98,15,31,45,64,42,14,58,68,33,24]","262.6"
"33","812","1","9","1","35","1","1562661693","1562661693","64","[]","0"
"34","882","1","9","1","56","1","1562661754","1562661693","64","[97,48,100,80,64,21,17,59,75,82,46,61,60]","-57.5"
"35","818","1","9","1","22","1","1562661754","1562661693","64","[72,98,15,55,28]","208.7"
"36","862","1","9","1","82","1","1562661756","1562661693","64","[37,97,17,100,79,46,58,80,48,76,33,64]","102.5"
"37","824","1","9","1","100","1","1562661749","1562661693","64","[99,37,17,96,5,46,43,85]","227.9"
"38","826","1","9","1","36","1","1562661755","1562661693","64","[17,96,55,68,84,37,52,41]","-137.5"
"39","846","1","9","1","74","1","1562661739","1562661693","64","[66,31,7,14,6,92,27]","-57.5"
"40","868","1","9","1","69","1","1562661751","1562661693","64","[8,58,37,80,21,97,44,96]","262.6"
"41","861","1","9","1","77","1","1562661756","1562661693","64","[71,15,63,36,25,75,57,24,8,80,46,48,32,70,66]","102.5"
"42","822","1","9","1","5","1","1562661750","1562661693","64","[72,9,49,1,47,75,100,97,85,79,93,43,30,24]","-217.5"
"43","829","1","9","1","79","1","1562661753","1562661693","64","[55,67,23,98,63,44,81,66]","359.7"
"44","821","1","9","1","80","1","1562661756","1562661693","64","[37,17,55,31,23,61,64,82,3,56,52]","-297.5"
"45","843","1","9","1","33","1","1562661757","1562661693","64","[37,84,57,98,58,24,18,32,14,68,72,60]","-137.5"
"46","811","1","9","1","63","1","1562661756","1562661693","64","[76,72,64,79,57,47,68,96,73,77]","-137.5"
"47","836","1","9","1","17","1","1562661754","1562661693","64","[8,30,64]","182.6"
"48","813","1","9","1","14","1","1562661756","1562661693","64","[90,58,82,92,6,89,33,74,31]","-217.5"
"49","832","1","9","1","6","1","1562661752","1562661693","64","[74,14,1,90,48,87,62]","262.6"
"50","840","1","9","1","26","1","1562661693","1562661693","64","[]","0"
"51","879","1","9","1","91","1","1562661753","1562661693","64","[71,18,21,56,78,20,7,28]","467.9"
"52","839","1","9","1","23","1","1562661756","1562661693","64","[17,80,47,79,76,51,98,42,68,66,21]","-57.5"
"53","837","1","9","1","51","1","1562661750","1562661693","64","[31,83,23,44,79,52]","22.5"
"54","808","1","9","1","71","1","1562661749","1562661693","64","[84,96,88,28]","102.5"
"55","806","1","9","1","20","1","1562661754","1562661693","64","[91]","208.7"
"56","863","1","9","1","83","1","1562661753","1562661693","64","[15,98,63,51,88,78,58,57,80,68,90,56]","262.6"
"57","844","1","9","1","54","1","1562661743","1562661693","64","[37,88,86]","209.6"
"58","891","1","9","1","34","1","1562661753","1562661693","64","[1,38,100,49,58,9,48,56,61,8,80]","0"
"59","852","1","9","1","24","1","1562661756","1562661693","64","[72,59,57,45,33,46,37]","102.5"
"60","885","1","9","1","67","1","1562661752","1562661693","64","[79,98]","262.6"
"61","897","1","9","1","60","1","1562661756","1562661693","64","[17,8,46,64,57,30,93,86,33,80,99,61,56,63]","-137.5"
"62","886","1","9","1","11","1","1562661756","1562661693","64","[36,18,38,9,86,62,78]","0"
"63","883","1","9","1","16","1","1562661757","1562661693","64","[67,48,80,3]","209.6"
"64","831","1","9","1","37","1","1562661754","1562661693","64","[24,76,36,72,48,98,99,100,86,93]","-137.5"
"65","895","1","9","1","90","1","1562661746","1562661693","64","[14,32,42,30]","182.6"
"66","810","1","9","1","94","1","1562661744","1562661693","64","[24,12,17,90,73,10,9]","208.7"
"67","820","1","9","1","27","1","1562661749","1562661693","64","[53,28,70,29,86,74,31]","102.5"
"68","802","1","9","1","52","1","1562661752","1562661693","64","[36,15,76,48,75,55,80,51,63,28]","-137.5"
"69","801","1","9","1","87","1","1562661754","1562661693","64","[36,31,63,3]","209.6"
"70","803","1","9","1","21","1","1562661756","1562661693","64","[17,80,97,71,76,83,32,79,55,23,64]","22.5"
"71","880","1","9","1","41","1","1562661746","1562661693","64","[80,24,55,2,85,36,40,12]","102.5"
"72","899","1","9","1","47","1","1562661756","1562661693","64","[1,17,59,37,80,5,10,46,60]","387.9"
"73","878","1","9","1","70","1","1562661756","1562661693","64","[17,75,57,97,55,27]","262.6"
"74","877","1","9","1","8","1","1562661757","1562661693","64","[57,1,37,30,61,60,99,17]","-57.5"
"75","876","1","9","1","73","1","1562661756","1562661693","64","[63,43,46,77,37,92,68,31]","182.6"
"76","873","1","9","1","44","1","1562661757","1562661693","64","[56,99,35,79,51,31,69,50,46,55,100,66,72]","227.9"
"77","851","1","9","1","86","1","1562661741","1562661693","64","[100,1,48,37,97,81,60,78,93,56,39]","182.6"
"78","805","1","9","1","9","1","1562661723","1562661693","64","[38]","208.7"
"79","850","1","9","1","45","1","1562661752","1562661693","64","[31,8,72,38]","262.6"
"80","889","1","9","1","61","1","1562661754","1562661693","64","[97,80,8,30,28,56]","22.5"
"81","848","1","9","1","75","1","1562661751","1562661693","64","[71,64,5,52]","182.6"
"82","825","1","9","1","10","1","1562661757","1562661693","64","[47,76,21,67,68,58,63,24,20,90,36,28]","208.7"
"83","823","1","9","1","46","1","1562661753","1562661693","64","[17,97,49,79,100,47,21,75,26,45,77]","102.5"
"84","857","1","9","1","53","1","1562661757","1562661693","64","[46,58,31,55,57,79,80,63]","0"
"85","896","1","9","1","30","1","1562661755","1562661693","64","[1,38,84,67,17,49,61,21,26,8,59,96,43,5,48,90,45,39,60,6,92,2,91,65]","-457.4"
"86","847","1","9","1","98","1","1562661756","1562661693","64","[96,1,67,81,50]","182.6"
"87","898","1","9","1","49","1","1562661756","1562661693","64","[76,88,58,24,71,63,31,57]","209.6"
"88","900","1","9","1","43","1","1562661733","1562661693","64","[8,1,71,100,72,5]","262.6"
"89","816","1","9","1","64","1","1562661757","1562661693","64","[17,37,48,100,79,80,32,75,21,46,72,57,82,59]","-297.5"
"90","830","1","9","1","76","1","1562661756","1562661693","64","[100,21,1,55,97,23,82,81,52,53]","-57.5"
"91","814","1","9","1","15","1","1562661756","1562661693","64","[100,55,88,52]","182.6"
"92","827","1","9","1","18","1","1562661755","1562661693","64","[5,31,33]","262.6"
"93","804","1","9","1","7","1","1562661754","1562661693","64","[74,9,49,76,18,93,91,12,66,50,62]","102.5"
"94","858","1","9","1","72","1","1562661752","1562661693","64","[97,37,40,42,24,5,22,48,45,68,63,64,33]","-252.1"
"95","871","1","9","1","28","1","1562661750","1562661693","64","[80,75,55,98,61,27,71,63,24,91]","22.5"
"96","835","1","9","1","92","1","1562661756","1562661693","64","[14,73,74,30]","102.5"
"97","875","1","9","1","32","1","1562661753","1562661693","64","[90,57,64,21,99,33,97,77]","-217.5"
"98","838","1","9","1","99","1","1562661751","1562661693","64","[48,1,37,8,100,17,98,79,32,56,43,60,75,39]","-57.5"
"99","842","1","9","1","29","1","1562661755","1562661693","64","[97,56,76,82,57,55]","208.7"
"100","817","1","9","1","97","1","1562661752","1562661693","64","[17,32,56,46,21,72]","22.5"
"101","856","2","9","1","86","1","1562662658","1562662475","64","[45,27,89,11,21,38,52]","228.4"
"102","833","2","9","1","10","1","1562662658","1562662475","64","[57,42,27,36]","308.4"
"103","844","2","9","1","92","1","1562662658","1562662475","64","[23,63,73,62]","237.4"
"104","815","2","9","1","13","1","1562662623","1562662475","64","[18,36]","308.4"
"105","832","2","9","1","71","1","1562662621","1562662475","64","[82,39,23,73,27]","542.4"
"106","892","2","9","1","65","1","1562662655","1562662475","64","[48,83,64,90]","308.4"
"107","890","2","9","1","89","1","1562662654","1562662475","64","[52,24,9,50,56,23,29,19,7,58,18,86,22,62,42,85,79,69]","-571.6"
"108","881","2","9","1","22","1","1562662659","1562662475","64","[79,14,99,12,97,76]","228.4"
"109","882","2","9","1","75","1","1562662632","1562662475","64","[78,58]","397.4"
"110","887","2","9","1","68","1","1562662641","1562662475","64","[5,69,85,40,34,81,75,73,30,57,48,90]","-91.6"
"111","839","2","9","1","46","1","1562662657","1562662475","64","[17,97,50,59,26,78,55,40,47,24,13,21,72,56,49,3,28,69,94,53,80,38,9,76,1,33,42]","68.4"
"112","847","2","9","1","84","1","1562662657","1562662475","64","[48,79,19,100,40,75,99,20,97,59,3]","228.4"
"113","819","2","9","1","33","1","1562662657","1562662475","64","[98,12]","308.4"
"114","894","2","9","1","17","1","1562662658","1562662475","64","[42,45,53,39,8,100,73,78,50]","228.4"
"115","849","2","9","1","74","1","1562662655","1562662475","64","[83,73,1,97]","308.4"
"116","809","2","9","1","36","1","1562662659","1562662475","64","[9,96,10,19,13,2,94,61,24,1,15,21,50,74,98,44]","228.4"
"117","883","2","9","1","81","1","1562662648","1562662475","64","[68,35,30,45,39]","308.4"
"118","896","2","9","1","59","1","1562662495","1562662475","64","[37,36,5]","237.4"
"119","859","2","9","1","67","1","1562662488","1562662475","64","[20]","237.4"
"120","843","2","9","1","69","1","1562662651","1562662475","64","[42,59,1,55,36,72,68,86,82,89]","308.4"
"121","877","2","9","1","34","1","1562662656","1562662475","64","[37,11,57,68,90]","308.4"
"122","885","2","9","1","54","1","1562662657","1562662475","64","[27,53,52,98]","308.4"
"123","875","2","9","1","93","1","1562662589","1562662475","64","[82,47]","308.4"
"124","861","2","9","1","11","1","1562662657","1562662475","64","[38,51,67,52,100,30,27]","228.4"
"125","803","2","9","1","55","1","1562662653","1562662475","64","[1,97,6,21,24,25,34,100,26,39,37]","228.4"
"126","848","2","9","1","91","1","1562662646","1562662475","64","[1,11,97,73,100]","237.4"
"127","870","2","9","1","62","1","1562662659","1562662475","64","[58,4,40,73,100,91,27,23]","228.4"
"128","801","2","9","1","40","1","1562662647","1562662475","64","[49,62,82]","308.4"
"129","828","2","9","1","80","1","1562662650","1562662475","64","[53,29]","308.4"
"130","868","2","9","1","98","1","1562662647","1562662475","64","[33,29,12,20,49,54,15,47,100]","228.4"
"131","867","2","9","1","70","1","1562662545","1562662475","64","[45,96]","308.4"
"132","860","2","9","1","61","1","1562662658","1562662475","64","[63,51,99]","308.4"
"133","851","2","9","1","14","1","1562662654","1562662475","64","[1,100,6,51,64,47,27,53,2,20,74,3,26,49,16,91,22]","228.4"
"134","891","2","9","1","12","1","1562662651","1562662475","64","[18,49,47,64,26,100,67,8,80,78,33,43,93,63,44]","228.4"
"135","880","2","9","1","32","1","1562662645","1562662475","64","[43,10]","162"
"136","846","2","9","1","95","1","1562662648","1562662475","64","[84,1,99,68,70,61,52,80,27,16,82,17,20]","308.4"
"137","876","2","9","1","23","1","1562662659","1562662475","64","[26,42,98,80,30,45,70,71,76,100,17,73,67,62,77,92,59]","542.4"
"138","899","2","9","1","45","1","1562662658","1562662475","64","[17,70,11,37]","308.4"
"139","812","2","9","1","73","1","1562662603","1562662475","64","[94]","0"
"140","874","2","9","1","30","1","1562662649","1562662475","64","[1,38,39,26,11]","148.4"
"141","863","2","9","1","47","1","1562662646","1562662475","64","[39,31,34,25,90,93,12,88,16,80,30,100,52,59]","68.4"
"142","884","2","9","1","4","1","1562662641","1562662475","64","[44,83,81,62,96,41,35,39,63,54,64,88,51,100,90,73,91,27,37,59]","68.4"
"143","888","2","9","1","20","1","1562662657","1562662475","64","[79,67,47,58,84,16,28,18,6,78,98]","302.4"
"144","831","2","9","1","27","1","1562662657","1562662475","64","[15,100,49,76,59,56,71,29,23,66,41,61]","237.4"
"145","853","2","9","1","44","1","1562662659","1562662475","64","[82,4]","308.4"
"146","808","2","9","1","21","1","1562662641","1562662475","64","[50,91,96,23,15]","308.4"
"147","850","2","9","1","39","1","1562662649","1562662475","64","[2,30]","308.4"
"148","897","2","9","1","87","1","1562662659","1562662475","64","[82,41,27,17,99]","228.4"
"149","855","2","9","1","25","1","1562662519","1562662475","64","[38,17,6,67,8,26,55]","228.4"
"150","864","2","9","1","49","1","1562662638","1562662475","64","[25,14,97]","308.4"
"151","889","2","9","1","57","1","1562662654","1562662475","64","[10,68,82,51,74,5]","308.4"
"152","865","2","9","1","9","1","1562662658","1562662475","64","[100,1,38,89,64,88,90,27,73,95,45,67,85,63,53,8,83,58,19]","228.4"
"153","871","2","9","1","15","1","1562662659","1562662475","64","[43,23,2,82,14,41,20,55,78,84,59,24,21,17,49,19,46,97,4]","148.4"
"154","869","2","9","1","60","1","1562662658","1562662475","64","[100,14,73,27,5,63,32]","308.4"
"155","872","2","9","1","5","1","1562662652","1562662475","64","[69,51,73,90,100,28,91,27,60]","308.4"
"156","878","2","9","1","77","1","1562662648","1562662475","64","[72,85]","308.4"
"157","858","2","9","1","76","1","1562662635","1562662475","64","[24,75,14,79,22]","228.4"
"158","854","2","9","1","8","1","1562662654","1562662475","64","[26,16,29,14,70,27,64,92]","308.4"
"159","900","2","9","1","94","1","1562662657","1562662475","64","[8,37,5,78,81,53,59,11,85]","228.4"
"160","873","2","9","1","78","1","1562662642","1562662475","64","[97,80,48,75,36,94,37,46,17]","614.9"
"161","857","2","9","1","19","1","1562662646","1562662475","64","[84,51,36,9,98,45,15,99,89,79,82,52]","-91.6"
"162","862","2","9","1","26","1","1562662654","1562662475","64","[80,8,49,21,59,53,39,94,30,25]","228.4"
"163","898","2","9","1","42","1","1562662658","1562662475","64","[66,7,71,41,29,95]","228.4"
"164","824","2","9","1","16","1","1562662658","1562662475","64","[75,64,8,20,37]","308.4"
"165","821","2","9","1","53","1","1562662640","1562662475","64","[94,80]","308.4"
"166","852","2","9","1","7","1","1562662626","1562662475","64","[55,67,41,31,89,42,28,51,6]","68.4"
"167","820","2","9","1","56","1","1562662642","1562662475","64","[36,80,89,98,37,52,51]","228.4"
"168","836","2","9","1","58","1","1562662653","1562662475","64","[1,27,39,75,59,96,42,50,94]","162"
"169","823","2","9","1","50","1","1562662651","1562662475","64","[76,89,21,46,17,72]","68.4"
"170","810","2","9","1","3","1","1562662658","1562662475","64","[72,97,77]","308.4"
"171","830","2","9","1","41","1","1562662651","1562662475","64","[49,80,15,87,42,9,52,7]","68.4"
"172","840","2","9","1","100","1","1562662475","1562662475","64","[]","0"
"173","845","2","9","1","35","1","1562662659","1562662475","64","[80,79,5,4,81,99,97,67]","148.4"
"174","811","2","9","1","63","1","1562662659","1562662475","64","[44,61,43,65,60,23,15,42,71,93,32,47]","308.4"
"175","806","2","9","1","2","1","1562662642","1562662475","64","[38,28,39]","228.4"
"176","827","2","9","1","51","1","1562662655","1562662475","64","[72,61,32,44,49,52,7,31,64,56,18,33,54,98,1,99]","-11.6"
"177","814","2","9","1","85","1","1562662642","1562662475","64","[37,48,9,5,68,77,81,53,14,84,64,44,89]","148.4"
"178","835","2","9","1","72","1","1562662658","1562662475","64","[3,36,23,49,8,81,58,77,51,9,60,24,46,50,13,31,12,96,63,93,33,5,40,61,54,95,41,89,22]","68.4"
"179","879","2","9","1","82","1","1562662658","1562662475","64","[71,44,48,66,93,92,58,32,7,87,100,33,15,36,95,65,52,43,40,31,18,13,27,46]","-331.6"
"180","818","2","9","1","48","1","1562662652","1562662475","64","[63,68,43,99,54,8,34,90,36,62]","774.9"
"181","834","2","9","1","24","1","1562662658","1562662475","64","[49,97,55,2,89,37,21,46,22,76]","68.4"
"182","825","2","9","1","28","1","1562662658","1562662475","64","[1,5,3,2,4,13,9,18,19,89]","148.4"
"183","893","2","9","1","79","1","1562662657","1562662475","64","[74,3,63,35,20,2,46,97,7,45,14,36,18,33,68,99,40,12,76,1,32,84,19,88,62,78,52,51,22,38,98,89,47,57,77]","-331.6"
"184","804","2","9","1","31","1","1562662644","1562662475","64","[82,47,44,88,46,7,39,90,73,100,27,59]","228.4"
"185","822","2","9","1","29","1","1562662649","1562662475","64","[49,100,97,96,47,80,89]","228.4"
"186","816","2","9","1","1","1","1562662627","1562662475","64","[18,80,5,86,53,94,25,26,28]","308.4"
"187","837","2","9","1","66","1","1562662657","1562662475","64","[82,55,93,95,60,59,16,67,73,42,6]","308.4"
"188","805","2","9","1","88","1","1562662535","1562662475","64","[4,90]","308.4"
"189","841","2","9","1","99","1","1562662655","1562662475","64","[63,72,2,74,87,79,44,12,56,68,18,52,38]","68.4"
"190","802","2","9","1","96","1","1562662641","1562662475","64","[15,57,14,29,27,70,88,44,73,100]","308.4"
"191","817","2","9","1","97","1","1562662655","1562662475","64","[99,74,91,3,35,67,46,50,81,45,61,33,49,72,83,76,14]","222.4"
"192","886","2","9","1","37","1","1562662655","1562662475","64","[49,38,91,59,78,24,94]","462.4"
"193","895","2","9","1","43","1","1562662645","1562662475","64","[88,31,49,80,32,48,59]","397.4"
"194","866","2","9","1","52","1","1562662655","1562662475","64","[14,89,31,9,18,86,11,42,98,7,82,13,15,12,95,54,43,27,23,51,56,92,99,47,79,41,19,85]","-571.6"
"195","813","2","9","1","18","1","1562662659","1562662475","64","[45,1,12,13,20,14,94,23,78,99,89,79,15,28,51,46,97,83]","-251.6"
"196","842","2","9","1","64","1","1562662644","1562662475","64","[48,37,80,27,34,4,65]","308.4"
"197","826","2","9","1","6","1","1562662651","1562662475","64","[75,14,28,55]","308.4"
"198","807","2","9","1","83","1","1562662657","1562662475","64","[59,64,48,72,88,62,63,65,99,40,98,74,76,20,97]","228.4"
"199","838","2","9","1","90","1","1562662658","1562662475","64","[21,48,37,28,32,88,47,69,68,64,54,77,34,43,85,57,62]","68.4"
"200","829","2","9","1","38","1","1562662654","1562662475","64","[86,2,99,11,26,14,30,10,27,25,100]","-11.6"
"201","875","3","9","1","27","1","1562663021","1562662942","184","[17,39]","302"
"202","815","3","9","1","84","1","1562663040","1562662942","184","[12]","234.6"
"203","829","3","9","1","95","1","1562662976","1562662942","184","[49,87,53,59,60,37,31,3,92]","764.5"
"204","805","3","9","1","37","1","1562663030","1562662942","184","[8,85]","234.6"
"205","823","3","9","1","69","1","1562663027","1562662942","184","[75,84,41,71,16,90,89,29]","302"
"206","877","3","9","1","13","1","1562663040","1562662942","184","[58,41,18,89]","302"
"207","880","3","9","1","36","1","1562663038","1562662942","184","[96,89]","302"
"208","868","3","9","1","17","1","1562663037","1562662942","184","[45,53,75,93,83,100,27,37,80,58,62,72]","-18"
"209","845","3","9","1","80","1","1562663031","1562662942","184","[93,21]","302"
"210","841","3","9","1","78","1","1562663040","1562662942","184","[1,100,21,54,16,87,97]","222.1"
"211","891","3","9","1","93","1","1562663011","1562662942","184","[57,17,80,42]","302"
"212","836","3","9","1","60","1","1562663037","1562662942","184","[8,41,54,86,100,68,95]","393.3"
"213","870","3","9","1","45","1","1562663032","1562662942","184","[42,77,97,5,100,32,92,30,43]","222.1"
"214","809","3","9","1","96","1","1562663021","1562662942","184","[39,84,87,83,100,65,36,31,38,18,71,66,25,6,76,34,82,20,24,91]","-266.7"
"215","861","3","9","1","4","1","1562663038","1562662942","184","[51,100,22,2,92,58,20,32,9,59]","373.3"
"216","859","3","9","1","15","1","1562663032","1562662942","184","[70,31,61]","302"
"217","884","3","9","1","35","1","1562663028","1562662942","184","[66,89,62,77,16,61,20,14,99,6,55,90,34,42,31,56,87,68,37,92,3,32,53,30,85,12]","53.3"
"218","888","3","9","1","21","1","1562663039","1562662942","184","[38,80,82,40,50,73,94,13,78,30]","-18"
"219","883","3","9","1","19","1","1562663040","1562662942","184","[26,2,48,91,67,50,97,9]","142.1"
"220","824","3","9","1","30","1","1562663024","1562662942","184","[8,21,85,100,49,1,59,64,61,40,60]","142.1"
"221","889","3","9","1","14","1","1562663039","1562662942","184","[29,24,33,35,10,27,42,77]","302"
"222","843","3","9","1","9","1","1562663034","1562662942","184","[72,53,79,61,19,3,6]","1098.1"
"223","801","3","9","1","51","1","1562663037","1562662942","184","[72,15,98,76,50,74,54,26,9,7,3,49]","222.1"
"224","869","3","9","1","100","1","1562663028","1562662942","184","[4,56,53,32,92,10]","302"
"225","878","3","9","1","82","1","1562663024","1562662942","184","[96,97,53]","302"
"226","806","3","9","1","49","1","1562663035","1562662942","184","[61,64,30,26,95]","222.1"
"227","864","3","9","1","76","1","1562663035","1562662942","184","[96,11]","302"
"228","867","3","9","1","68","1","1562663025","1562662942","184","[5,60]","160.7"
"229","813","3","9","1","94","1","1562663037","1562662942","184","[71,24,21,74,11,8,31]","62"
"230","848","3","9","1","77","1","1562663029","1562662942","184","[25,92,66]","222.1"
"231","860","3","9","1","34","1","1562663018","1562662942","184","[39,35]","302"
"232","896","3","9","1","20","1","1562662962","1562662942","184","[96]","234.6"
"233","882","3","9","1","22","1","1562663039","1562662942","184","[56,64,4]","234.6"
"234","892","3","9","1","7","1","1562663040","1562662942","184","[84,9,69,58,56,51]","302"
"235","839","3","9","1","97","1","1562663037","1562662942","184","[24,36,54,47,74,78,79,8,84,89,21,17,13,73,1,43]","302"
"236","900","3","9","1","74","1","1562663039","1562662942","184","[8,37,46,75,93,76,88,35,51,94]","222.1"
"237","844","3","9","1","67","1","1562663034","1562662942","184","[2,24,5]","302"
"238","849","3","9","1","47","1","1562663034","1562662942","184","[77,37,8,57,90,92,32]","302"
"239","885","3","9","1","2","1","1562663034","1562662942","184","[19,4]","302"
"240","820","3","9","1","25","1","1562662989","1562662942","184","[37,72,58,33,77,39,91,96]","222.1"
"241","837","3","9","1","18","1","1562663031","1562662942","184","[11,13,74,96,56]","142.1"
"242","856","3","9","1","8","1","1562663040","1562662942","184","[33,78]","87"
"243","893","3","9","1","6","1","1562663037","1562662942","184","[21,90,84,10,58,72,11,35,70,24,39,95,34,62,17,63,15,71,48,25,96]","-18"
"244","812","3","9","1","61","1","1562662942","1562662942","184","[]","0"
"245","819","3","9","1","32","1","1562663038","1562662942","184","[26,78,45,4]","302"
"246","854","3","9","1","46","1","1562663039","1562662942","184","[29,74,59,42,65]","222.1"
"247","822","3","9","1","52","1","1562663026","1562662942","184","[1,48,8,37,40,75,56,67]","302"
"248","802","3","9","1","10","1","1562663039","1562662942","184","[8,100,38,88,1]","533.3"
"249","803","3","9","1","56","1","1562663040","1562662942","184","[37,48,8,75,42,99,54,18,87,53,61,64,29]","222.1"
"250","833","3","9","1","99","1","1562663031","1562662942","184","[100,74,21,56,64,35,92,66,32]","302"
"251","842","3","9","1","85","1","1562663040","1562662942","184","[37,58,97,78,73,56,30]","533.3"
"252","840","3","9","1","31","1","1562663039","1562662942","184","[15,94,96,95,91,58,33,11,71,13,12,29]","62"
"253","897","3","9","1","65","1","1562663035","1562662942","184","[28,46,96,87,44,61,92]","62"
"254","858","3","9","1","50","1","1562663037","1562662942","184","[79,59,62,97,64,5]","533.3"
"255","890","3","9","1","29","1","1562663040","1562662942","184","[76,14,64,46,61,15,25,90,69,56]","142.1"
"256","899","3","9","1","24","1","1562663040","1562662942","184","[26,67,82,80,23,48,40,95]","302"
"257","804","3","9","1","39","1","1562663030","1562662942","184","[86,50,54,27,43,25,34,64,6,91,96]","-98"
"258","832","3","9","1","86","1","1562663039","1562662942","184","[44,81]","302"
"259","807","3","9","1","11","1","1562663037","1562662942","184","[18,76,46,82,84,13,69,71,59,90,12,94,91]","62"
"260","852","3","9","1","23","1","1562663034","1562662942","184","[73,24,53]","222.1"
"261","898","3","9","1","59","1","1562663038","1562662942","184","[8,41,21,54,48,88,17,4,72,83]","222.1"
"262","808","3","9","1","40","1","1562663017","1562662942","184","[21,41,61,56,30]","533.3"
"263","851","3","9","1","1","1","1562663030","1562662942","184","[85,10,57,74]","302"
"264","887","3","9","1","57","1","1562663033","1562662942","184","[64,85,42,47,1,74,44]","222.1"
"265","874","3","9","1","88","1","1562663038","1562662942","184","[10]","234.6"
"266","834","3","9","1","98","1","1562663019","1562662942","184","[71,67,51,9]","302"
"267","881","3","9","1","63","1","1562663028","1562662942","184","[94,78,75,89,83,6]","222.1"
"268","811","3","9","1","54","1","1562663034","1562662942","184","[62,87,39]","302"
"269","831","3","9","1","64","1","1562663040","1562662942","184","[72,76,15,74,60,50,91,62,75,2,100,34,68]","234.6"
"270","810","3","9","1","79","1","1562663040","1562662942","184","[93,33,28,97,5,50,83]","142.1"
"271","863","3","9","1","73","1","1562663040","1562662942","184","[1,21,8,48,58,85,60,41,23,37,32,64,92,61,45,53,87]","142.1"
"272","873","3","9","1","28","1","1562663035","1562662942","184","[72,15,79,96,64,44,32,92,3,91,37,61,65]","222.1"
"273","879","3","9","1","44","1","1562663040","1562662942","184","[15,28,57,77,76,86,65,5,85,32,68,75,53,83,87,74,61]","142.1"
"274","871","3","9","1","12","1","1562663032","1562662942","184","[72,36,94,84,74,1,93,67,48,11,27,35,40,78]","533.3"
"275","816","3","9","1","75","1","1562663033","1562662942","184","[17,52]","302"
"276","827","3","9","1","53","1","1562663034","1562662942","184","[72,82,23,16]","302"
"277","857","3","9","1","71","1","1562663028","1562662942","184","[84,94,98,69,96,62,59,81,8,21,97,78,11,53]","-98"
"278","821","3","9","1","3","1","1562663036","1562662942","184","[38,40,9]","736.4"
"279","853","3","9","1","81","1","1562663026","1562662942","184","[66,71,86]","222.1"
"280","872","3","9","1","41","1","1562663037","1562662942","184","[87,64,61,37,32,3,92,53,20,36,40]","234.6"
"281","850","3","9","1","42","1","1562663032","1562662942","184","[43,45]","302"
"282","818","3","9","1","89","1","1562663040","1562662942","184","[36,70,26,41,91,63,77,72,40,3,9,87]","62"
"283","838","3","9","1","92","1","1562663039","1562662942","184","[77,65]","302"
"284","828","3","9","1","26","1","1562663038","1562662942","184","[19,49]","302"
"285","895","3","9","1","91","1","1562663040","1562662942","184","[15,36,10,61,89,96,19]","222.1"
"286","825","3","9","1","58","1","1562663039","1562662942","184","[75,1,64,24,100,7,46,38,50,36,70,62,17,80,59,16,31,69,88,21,99,82,71,13,94]","-18"
"287","826","3","9","1","55","1","1562663040","1562662942","184","[35,47]","234.6"
"288","865","3","9","1","66","1","1562663040","1562662942","184","[8,85,40,77,36,42,32,37,53,19,92,41,44,76,35,81,96]","142.1"
"289","814","3","9","1","83","1","1562663037","1562662942","184","[8,37,48,17,58,100,97,40,62,80,91,5,63,79,34,94]","142.1"
"290","817","3","9","1","87","1","1562663037","1562662942","184","[8,37,78,77,58,85,40,13,89,94,82,63,21]","302"
"291","876","3","9","1","38","1","1562663019","1562662942","184","[33,37,80,8,49,60,3]","435.3"
"292","830","3","9","1","48","1","1562663003","1562662942","184","[8,52,72,83,73,59]","62"
"293","855","3","9","1","62","1","1562662969","1562662942","184","[1,71,8,17,54]","222.1"
"294","866","3","9","1","70","1","1562663035","1562662942","184","[27,15,10,25,56,8,41,33,6,89,86,72,58,21,13,74,7,87,78,51]","142.1"
"295","835","3","9","1","90","1","1562663023","1562662942","184","[47,6,35,64,95]","222.1"
"296","847","3","9","1","43","1","1562663030","1562662942","184","[8,79,100,59,37,80,45,75,39,42]","222.1"
"297","846","3","9","1","16","1","1562663036","1562662942","184","[100,12,87,37,61,58,35,32]","302"
"298","894","3","9","1","5","1","1562663040","1562662942","184","[67,50,39,92,3,75]","302"
"299","862","3","9","1","33","1","1562663036","1562662942","184","[1,38,97,58,8,24,19]","202.3"
"300","886","3","9","1","72","1","1562663040","1562662942","184","[48,9,59]","222.1"
"301","875","4","9","1","20","1","1562663502","1562663361","98","[67,16]","245.9"
"302","867","4","9","1","74","1","1562663480","1562663361","98","[95,78,30]","323.4"
"303","806","4","9","1","55","1","1562663486","1562663361","98","[1,84,6,29,98,91,14]","243.4"
"304","809","4","9","1","54","1","1562663500","1562663361","98","[65,36,30,12]","163.4"
"305","883","4","9","1","67","1","1562663502","1562663361","98","[48,86,15,6,58,81,14,8,93]","323.4"
"306","894","4","9","1","18","1","1562663501","1562663361","98","[17,82,49,5,91,84,97,77,78]","163.4"
"307","813","4","9","1","15","1","1562663489","1562663361","98","[37,18,11,22,31,24,21,4,88]","163.4"
"308","885","4","9","1","34","1","1562663500","1562663361","98","[48,22,10,85]","323.4"
"309","896","4","9","1","27","1","1562663396","1562663361","98","[38,7]","323.4"
"310","824","4","9","1","47","1","1562663502","1562663361","98","[67,37,16,41,39,12]","243.4"
"311","878","4","9","1","56","1","1562663460","1562663361","98","[82,98]","323.4"
"312","856","4","9","1","33","1","1562663495","1562663361","98","[49,82,13,4,60]","245.9"
"313","891","4","9","1","85","1","1562663393","1562663361","98","[75,24,79,34,21]","243.4"
"314","815","4","9","1","29","1","1562663502","1562663361","98","[30,55,12]","243.4"
"315","819","4","9","1","26","1","1562663453","1562663361","98","[40,67,92,53]","323.4"
"316","880","4","9","1","17","1","1562663498","1562663361","98","[76,41]","323.4"
"317","889","4","9","1","36","1","1562663493","1562663361","98","[57,34,99,21,31,2,56,54,45,5]","163.4"
"318","873","4","9","1","83","1","1562663500","1562663361","98","[96,88,37,90,89,42,71,14,84,76]","83.4"
"319","900","4","9","1","39","1","1562663498","1562663361","98","[8,49,17,72,50,43,97,19,90,6,26,77,58,65,16,47,71,52]","485.9"
"320","868","4","9","1","4","1","1562663495","1562663361","98","[92,50,30,42,11,14,2,98,96,49,75,59,100,32,6,72]","243.4"
"321","870","4","9","1","24","1","1562663488","1562663361","98","[85,57,1,15]","243.4"
"322","888","4","9","1","59","1","1562663488","1562663361","98","[79,28,72,50,23,19,82,7,4]","3.4"
"323","828","4","9","1","40","1","1562663425","1562663361","98","[61,26]","323.4"
"324","884","4","9","1","7","1","1562663489","1562663361","98","[11,8,44,42,3,5,40,27,39,13,49,81,14,59,73]","163.4"
"325","832","4","9","1","94","1","1562663499","1562663361","98","[38,14,68]","323.4"
"326","864","4","9","1","43","1","1562663500","1562663361","98","[39,37,88]","243.4"
"327","822","4","9","1","5","1","1562663498","1562663361","98","[1,49,79,88,7,9]","323.4"
"328","834","4","9","1","35","1","1562663502","1562663361","98","[76,88,89,10]","243.4"
"329","872","4","9","1","48","1","1562663473","1562663361","98","[39,13,75,82,49,16,14,42,99,92]","243.4"
"330","849","4","9","1","95","1","1562663492","1562663361","98","[1,21,99,48,90,100]","323.4"
"331","892","4","9","1","3","1","1562663496","1562663361","98","[12,7,9,14,5,1,58]","163.4"
"332","820","4","9","1","69","1","1562663496","1562663361","98","[77,60,64,78,1]","243.4"
"333","845","4","9","1","2","1","1562663496","1562663361","98","[7,96,36,4]","323.4"
"334","890","4","9","1","78","1","1562663497","1562663361","98","[10,18,85,74,55,76,32,22,96,77,69,62,30,34,48,88,60,98,51,46,7,12,66,61]","-156.6"
"335","844","4","9","1","100","1","1562663489","1562663361","98","[66,46,13,62]","243.4"
"336","843","4","9","1","84","1","1562663501","1562663361","98","[49,80,48,30,14,39,12,24,13,83,86,61,18]","163.4"
"337","851","4","9","1","45","1","1562663500","1562663361","98","[100,97,21,82,58,15,36,61]","323.4"
"338","805","4","9","1","49","1","1562663495","1562663361","98","[19,23,30,80]","323.4"
"339","871","4","9","1","12","1","1562663502","1562663361","98","[86,9,3,25,85,31,17,18,87,47,33,30,29,57,54,94,65,34]","-156.6"
"340","842","4","9","1","6","1","1562663499","1562663361","98","[37,21,44,25,91,20]","323.4"
"341","801","4","9","1","76","1","1562663479","1562663361","98","[35,24,46,17,78,15,48,38,43,52,30,72,16,81,34,83]","-156.6"
"342","876","4","9","1","99","1","1562663500","1562663361","98","[7,89,36]","323.4"
"343","857","4","9","1","38","1","1562663444","1562663361","98","[76,30,27,28,75,94,80,55,18,23,31,15,81,62]","-236.6"
"344","808","4","9","1","89","1","1562663492","1562663361","98","[21,99,88,57,68,35,1,83]","83.4"
"345","887","4","9","1","25","1","1562663501","1562663361","98","[41,43,92,90,96,19,14]","565.9"
"346","848","4","9","1","92","1","1562663498","1562663361","98","[81,14,63,49]","0"
"347","854","4","9","1","10","1","1562663497","1562663361","98","[58,8,34]","243.4"
"348","836","4","9","1","58","1","1562663495","1562663361","98","[37,57,18,10,13,5,60]","323.4"
"349","839","4","9","1","30","1","1562663500","1562663361","98","[24,79,58,38,77,18,64,55,29,54,36,56,81,21,62,59,74,45]","163.4"
"350","803","4","9","1","23","1","1562663492","1562663361","98","[1,100,99,38,56,50,98,80,41,76,39,46]","243.4"
"351","804","4","9","1","65","1","1562663490","1562663361","98","[86,21,76,54]","323.4"
"352","840","4","9","1","93","1","1562663501","1562663361","98","[10,99,67,22,32,81,39,79,65,7,40,31]","323.4"
"353","833","4","9","1","52","1","1562663502","1562663361","98","[95,48,81,14,92,37,76]","323.4"
"354","859","4","9","1","1","1","1562663498","1562663361","98","[45,18,39,3,55]","323.4"
"355","897","4","9","1","53","1","1562663501","1562663361","98","[90,16,92,14,26,94,34]","323.4"
"356","811","4","9","1","66","1","1562663491","1562663361","98","[100,67,24,86,59,78]","243.4"
"357","860","4","9","1","71","1","1562663501","1562663361","98","[86,81]","323.4"
"358","810","4","9","1","28","1","1562663495","1562663361","98","[37,59,38,98,21]","243.4"
"359","850","4","9","1","72","1","1562663442","1562663361","98","[31,39]","245.9"
"360","837","4","9","1","62","1","1562663499","1562663361","98","[25,100,46,76,74,17,7,67,60,22,4,11]","323.4"
"361","826","4","9","1","11","1","1562663498","1562663361","98","[96,15]","323.4"
"362","823","4","9","1","31","1","1562663497","1562663361","98","[46,2,37,39,51,14,12,15]","163.4"
"363","812","4","9","1","14","1","1562663473","1562663361","98","[74,25]","245.9"
"364","807","4","9","1","88","1","1562663483","1562663361","98","[48,8,58,83,75,17,89,46,100,35,43,24]","163.4"
"365","830","4","9","1","9","1","1562663502","1562663361","98","[79,8,5,12,3,14,70,87,17,93]","163.4"
"366","825","4","9","1","82","1","1562663405","1562663361","98","[59,23,56]","323.4"
"367","858","4","9","1","46","1","1562663502","1562663361","98","[100,76,31,12,61,23]","83.4"
"368","882","4","9","1","68","1","1562663497","1562663361","98","[1,36,53,90,57,21,48,94,32,89,22,76]","243.4"
"369","835","4","9","1","87","1","1562663502","1562663361","98","[12,22,9,31,41,43,37,14]","323.4"
"370","818","4","9","1","37","1","1562663465","1562663361","98","[72,43,85,83,52,32,17,88,95,100,90,39]","243.4"
"371","829","4","9","1","21","1","1562663480","1562663361","98","[100,85,99,57,41,95,70]","163.4"
"372","802","4","9","1","80","1","1562663501","1562663361","98","[63,18,38,49]","243.4"
"373","827","4","9","1","81","1","1562663474","1562663361","98","[38,76,93,50,71,23]","163.4"
"374","814","4","9","1","41","1","1562663494","1562663361","98","[1,8,37,17,49,100,64,79,25,47,97,77,30,22,38,32,60]","3.4"
"375","817","4","9","1","70","1","1562663502","1562663361","98","[21,37,44,86,61,22,8,33,6]","163.4"
"376","866","4","9","1","60","1","1562663493","1562663361","98","[8,1,69,70,7,41,39,51,97,78,62,33,61,58]","165.9"
"377","855","4","9","1","63","1","1562663447","1562663361","98","[37,100,21,76,80,26,73,32]","323.4"
"378","879","4","9","1","86","1","1562663495","1562663361","98","[46,44,65,58,71,64,34,81,85,42,67,66,62,12,22,63,84,70,93]","-76.6"
"379","821","4","9","1","97","1","1562663495","1562663361","98","[77,18,58]","323.4"
"380","841","4","9","1","19","1","1562663497","1562663361","98","[100,1,24,97,8,63,13,49,25]","243.4"
"381","852","4","9","1","44","1","1562663478","1562663361","98","[6,70,98]","323.4"
"382","886","4","9","1","51","1","1562663493","1562663361","98","[48,61,89,31,23]","323.4"
"383","838","4","9","1","79","1","1562663497","1562663361","98","[18,45,23,59,96]","323.4"
"384","899","4","9","1","42","1","1562663501","1562663361","98","[39,76,30,41,94,48,52,100,73]","323.4"
"385","874","4","9","1","13","1","1562663457","1562663361","98","[19,32]","323.4"
"386","898","4","9","1","96","1","1562663498","1562663361","98","[63,75,57,79,10,4,33,11]","243.4"
"387","816","4","9","1","64","1","1562663497","1562663361","98","[73,41]","323.4"
"388","853","4","9","1","8","1","1562663498","1562663361","98","[41,60,10]","243.4"
"389","895","4","9","1","16","1","1562663502","1562663361","98","[30,48,14,20,49,39]","565.9"
"390","862","4","9","1","77","1","1562663494","1562663361","98","[37,97,79,18,69,50]","163.4"
"391","869","4","9","1","90","1","1562663452","1562663361","98","[53,95]","323.4"
"392","861","4","9","1","32","1","1562663502","1562663361","98","[72,100,21,79,82,49,73,81,13,14,78,1]","243.4"
"393","863","4","9","1","91","1","1562663483","1562663361","98","[6,39,67,49,14,81,92,55,2]","323.4"
"394","877","4","9","1","57","1","1562663502","1562663361","98","[97,72,98,21,24,15]","323.4"
"395","831","4","9","1","98","1","1562663500","1562663361","98","[75,24,39,95,76,46,29,56,28,59,8,73,36]","323.4"
"396","881","4","9","1","73","1","1562663477","1562663361","98","[32,64,55,38,63,68,42]","163.4"
"397","846","4","9","1","75","1","1562663499","1562663361","98","[81,38,14,21,48]","323.4"
"398","865","4","9","1","22","1","1562663496","1562663361","98","[81,21,49,19,16,6,76,92,14,68,15,80]","323.4"
"399","893","4","9","1","61","1","1562663499","1562663361","98","[1,84,21,51,94,40,45,30,38,92,60,70,46,26,78]","-156.6"
"400","847","4","9","1","50","1","1562663501","1562663361","98","[8,100,21,57,22,82,59,23,41,77,99]","243.4"
"401","878","5","9","1","62","1","1562664086","1562663789","141","[67,76]","300"
"402","846","5","9","1","29","1","1562664108","1562663789","141","[81,58,75,74,31,7,49,89,2,34,6,8,66]","300"
"403","875","5","9","1","73","1","1562664107","1562663789","141","[35,25]","300"
"404","802","5","9","1","49","1","1562664104","1562663789","141","[14,69]","300"
"405","810","5","9","1","32","1","1562664079","1562663789","141","[50,40]","300"
"406","823","5","9","1","69","1","1562664100","1562663789","141","[33,60,12,49,63,66,90]","220"
"407","860","5","9","1","47","1","1562664103","1562663789","141","[19,99]","300"
"408","813","5","9","1","87","1","1562664095","1562663789","141","[63,1,38,34,40,83,22,91,29,8,52]","140"
"409","843","5","9","1","86","1","1562664104","1562663789","141","[80,60,93,31,61,98,81,92,40,97]","220"
"410","856","5","9","1","33","1","1562664087","1562663789","141","[38,17,41,21,34,31,99]","232.4"
"411","806","5","9","1","48","1","1562664107","1562663789","141","[96,60,67,26,74,27,10,15,76,39]","220"
"412","888","5","9","1","88","1","1562664094","1562663789","141","[21,76,85,11,4,47]","300"
"413","882","5","9","1","80","1","1562664108","1562663789","141","[89,94,77]","300"
"414","832","5","9","1","90","1","1562664106","1562663789","141","[61,58,67]","300"
"415","848","5","9","1","21","1","1562664087","1562663789","141","[16,91,31,25]","220"
"416","880","5","9","1","59","1","1562664080","1562663789","141","[4,6]","300"
"417","801","5","9","1","42","1","1562664082","1562663789","141","[57,35,77,82,50,76,45]","390.2"
"418","871","5","9","1","83","1","1562664095","1562663789","141","[14,69,54,87,2,72,35,78,70,5,44,71,48,81,42,85,60,79,90,13,62,86,46,50,32]","903.9"
"419","883","5","9","1","34","1","1562664093","1562663789","141","[82,81,28,87,4,14,31]","300"
"420","870","5","9","1","70","1","1562664105","1562663789","141","[7,94,83]","390.2"
"421","820","5","9","1","92","1","1562664108","1562663789","141","[71,24,19,35,86,18,28,59,69,64,14,46,15,32,99,72,82,98,87,60,37,13,76]","-99.9"
"422","881","5","9","1","3","1","1562664105","1562663789","141","[24,12,14,83,10]","220"
"423","824","5","9","1","58","1","1562664089","1562663789","141","[91,60,21,67,9,56,90]","220"
"424","821","5","9","1","43","1","1562664102","1562663789","141","[8,21,65,60,29,89,85,4]","300"
"425","819","5","9","1","45","1","1562664104","1562663789","141","[42,13,5,91,97]","159"
"426","812","5","9","1","60","1","1562664090","1562663789","141","[44,46,92,94,35,89]","140"
"427","805","5","9","1","81","1","1562663975","1562663789","141","[24,53,20,27]","220"
"428","889","5","9","1","44","1","1562664107","1562663789","141","[98,80,20,13,56,38,17,99,23,11,84,72,52,90]","140"
"429","884","5","9","1","24","1","1562664104","1562663789","141","[81,93,60,9]","300"
"430","853","5","9","1","93","1","1562664103","1562663789","141","[22,26]","232.4"
"431","868","5","9","1","82","1","1562664099","1562663789","141","[86,31,68,60,51,21,90,43,24,12,79,11,2,7,38,5,52]","220"
"432","808","5","9","1","97","1","1562664102","1562663789","141","[21,27,75,5,70,77,4,31,98,86,25]","140"
"433","887","5","9","1","23","1","1562664099","1562663789","141","[60,61,26,81,88,94,44,50,76,5]","220"
"434","859","5","9","1","68","1","1562664104","1562663789","141","[49,53,92,4,84]","220"
"435","822","5","9","1","1","1","1562664099","1562663789","141","[14,91,77]","300"
"436","849","5","9","1","57","1","1562664091","1562663789","141","[63,5,60,31]","300"
"437","892","5","9","1","74","1","1562664099","1562663789","141","[56,76,43,65,15]","300"
"438","890","5","9","1","10","1","1562664106","1562663789","141","[16,85,50,15,48,80,84,35,94,33,6,67,51,40,98,91,46,42,100,30,72,25,76,93,3,37]","-259.9"
"439","874","5","9","1","95","1","1562664108","1562663789","141","[23,37,25]","300"
"440","877","5","9","1","79","1","1562664105","1562663789","141","[21,96,56]","300"
"441","865","5","9","1","20","1","1562664108","1562663789","141","[38,31,84,9,95,60,5,51,41]","300"
"442","842","5","9","1","28","1","1562664107","1562663789","141","[17,69,71,57,98,99]","232.4"
"443","809","5","9","1","35","1","1562664090","1562663789","141","[78,13,99,67,82,63,44,84,50,12,41,98,87,58,73,92,37,22,60]","60"
"444","861","5","9","1","39","1","1562664105","1562663789","141","[26,9,60,61,65,100,48]","220"
"445","876","5","9","1","91","1","1562664108","1562663789","141","[16,85,32,37,46,87,82,44,77]","300"
"446","829","5","9","1","4","1","1562664046","1562663789","141","[9,59,43,99,81,68,14,70,32,98,85,58,21,91,11,40,25,60,31,57,52,5]","60"
"447","897","5","9","1","15","1","1562664106","1562663789","141","[9,83,60,5,65,21,58]","-71.6"
"448","872","5","9","1","61","1","1562664105","1562663789","141","[84,60,21,5,31,91,67,6,27]","300"
"449","815","5","9","1","100","1","1562664099","1562663789","141","[39,31]","300"
"450","839","5","9","1","14","1","1562664095","1562663789","141","[49,1,74,80,21,85,36,96,72,44,86,64,62,52,18,60,100,13,41,91,98,3,53,22,29,6,99,83,4]","-99.9"
"451","894","5","9","1","75","1","1562664106","1562663789","141","[99,61,67,5,78,25,29,97]","220"
"452","845","5","9","1","36","1","1562664097","1562663789","141","[37,76]","300"
"453","828","5","9","1","12","1","1562664047","1562663789","141","[3,14,69,98]","529.1"
"454","826","5","9","1","16","1","1562664092","1562663789","141","[10,21]","300"
"455","838","5","9","1","71","1","1562664093","1562663789","141","[28,5,99]","529"
"456","896","5","9","1","41","1","1562664089","1562663789","141","[88,38,34,20,27,14]","300"
"457","891","5","9","1","63","1","1562664082","1562663789","141","[57,79,64,25,98,69]","300"
"458","830","5","9","1","77","1","1562664095","1562663789","141","[1,75,82,57,26,55,42,40,97,39,46,11,52,89,29,72,38,70,99,7,71,5,51,25,78,50,76,91]","423.9"
"459","863","5","9","1","53","1","1562664099","1562663789","141","[21,71,60,32,81,24,27,68,13]","140"
"460","834","5","9","1","2","1","1562664094","1562663789","141","[82,5,31]","300"
"461","841","5","9","1","38","1","1562664105","1562663789","141","[56,21,98,4,13,44,37]","300"
"462","811","5","9","1","22","1","1562664105","1562663789","141","[60,50,8,71,23,87,35]","300"
"463","840","5","9","1","6","1","1562664108","1562663789","141","[29,90,19,61,58,11,94,10,37,45,49,22,14,27,53,66,46,40,76,8,85,87,59,72,32,82,2,31,41,81,9,24,92,56,12,99,48,17,20,25,7]","-99.9"
"464","898","5","9","1","27","1","1562664106","1562663789","141","[80,67,17,1,98,61,88,20,11,5,73,53,38,81]","220"
"465","803","5","9","1","67","1","1562664106","1562663789","141","[85,99,1,76,60,46,91,9,90,62,56,96,66,17,68,36,54,55,32,65,79]","220"
"466","844","5","9","1","7","1","1562664106","1562663789","141","[70]","159"
"467","847","5","9","1","13","1","1562664104","1562663789","141","[61,40,59,37,71,36,9,96,44,30,79,18,53,92]","369"
"468","866","5","9","1","51","1","1562664077","1562663789","141","[97,15,45,82,35,72,59,77,10,22,14,86,25,6,50,71,20,44]","140"
"469","831","5","9","1","99","1","1562664108","1562663789","141","[29,98,42,83,47,54,71,91,89,100]","300"
"470","852","5","9","1","78","1","1562664101","1562663789","141","[75,4,83]","300"
"471","869","5","9","1","11","1","1562663863","1562663789","141","[30,88]","300"
"472","807","5","9","1","65","1","1562664097","1562663789","141","[31,98,58,46,55,79,24,38,17,15]","-146.6"
"473","854","5","9","1","72","1","1562664102","1562663789","141","[58,52,84,22,77,90,24]","233.7"
"474","833","5","9","1","89","1","1562664082","1562663789","141","[11,82,80,31,77]","300"
"475","850","5","9","1","9","1","1562664062","1562663789","141","[58,24,91]","300"
"476","867","5","9","1","66","1","1562664079","1562663789","141","[99,20,92,76,6]","300"
"477","804","5","9","1","85","1","1562664002","1562663789","141","[88,61,86,26,43,53,4,17,99,35]","140"
"478","814","5","9","1","25","1","1562664105","1562663789","141","[38,1,17,49,97,11,80,58,35,44,50,83,21,95,8,27,10,73,77]","-20"
"479","855","5","9","1","56","1","1562664064","1562663789","141","[17,79,74,46,80,96,58,76]","140"
"480","873","5","9","1","30","1","1562664070","1562663789","141","[38,11,82,13,98,10,70,22,37,36,81]","220"
"481","879","5","9","1","19","1","1562664098","1562663789","141","[70,81,28,93,87,22,39,90,60,83,21,31,18,72,5,37,47]","300"
"482","818","5","9","1","84","1","1562664089","1562663789","141","[24,74,96,64,93,9,67,27,68,17]","300"
"483","837","5","9","1","46","1","1562664099","1562663789","141","[40,60,75,17,94,78,98,44]","220"
"484","835","5","9","1","37","1","1562664099","1562663789","141","[79,58,83,36,100,45,92,4,74,66,26,19,63,38,42,54,52,1,70,95,40,67,60,64,27,86,5,16,76,10]","-20"
"485","899","5","9","1","40","1","1562664107","1562663789","141","[9,61,32,86,80,44,46]","220"
"486","864","5","9","1","8","1","1562664067","1562663789","141","[64,88,6,52]","300"
"487","817","5","9","1","31","1","1562664104","1562663789","141","[38,67,58,80,56,24,28,35,41,100,34,21,63,2,69,33,49,87]","369"
"488","862","5","9","1","18","1","1562664106","1562663789","141","[1,46,80,84,67,13,96,21,9,98,17]","232.4"
"489","825","5","9","1","98","1","1562664057","1562663789","141","[48,67,87,66,78,85,11,88,42,53,57,36,21,32,83,52,45,73,12]","232.4"
"490","836","5","9","1","5","1","1562663954","1562663789","141","[98,31,71,57]","300"
"491","858","5","9","1","55","1","1562664107","1562663789","141","[65,40,84]","-71.6"
"492","857","5","9","1","50","1","1562664087","1562663789","141","[9,8,32,10,19,20,35,23,79,98,76,91,77,99]","60"
"493","827","5","9","1","76","1","1562664104","1562663789","141","[74,75,58,65,48,32,98,57,36,66,20,96,84,53,63,9,18,86,85,44,62,24,92,35,23,15,22,78,83,46,77,95]","-180"
"494","851","5","9","1","17","1","1562664108","1562663789","141","[36,99,14,98,35,96,74,56,13,40,53,44]","300"
"495","886","5","9","1","52","1","1562664103","1562663789","141","[82,42,9,63,80,54,79,60,46,32,8,77]","220"
"496","885","5","9","1","54","1","1562664108","1562663789","141","[50,55,26,6,83]","233.7"
"497","816","5","9","1","64","1","1562664081","1562663789","141","[84,92]","300"
"498","900","5","9","1","96","1","1562664097","1562663789","141","[8,11,81,37,66,44,79,67]","300"
"499","895","5","9","1","26","1","1562664107","1562663789","141","[61,31,60,67,16,99,100,20,28,98,12,93,78,85,39]","529"
"500","893","5","9","1","94","1","1562664108","1562663789","141","[12,42,74,57,28,24,71,87,88,22,4,37,91,63,61,53,73,80,19,89,60,46]","220"
"501","875","6","9","1","99","1","1562664484","1562664214","319","[40,22,54,47,45]","290.4"
"502","881","6","9","1","68","1","1562664477","1562664214","319","[63,81,39,74,93]","210.4"
"503","860","6","9","1","41","1","1562664482","1562664214","319","[11,25,52]","158.3"
"504","888","6","9","1","4","1","1562664472","1562664214","319","[15,88,53,38,95,18,8,72,10,6,39]","75.2"
"505","867","6","9","1","66","1","1562664443","1562664214","319","[27,31,51,48]","290.4"
"506","823","6","9","1","93","1","1562664485","1562664214","319","[50,35,52]","210.4"
"507","843","6","9","1","25","1","1562664483","1562664214","319","[22,94,90,91,61,87,52,67]","290.4"
"508","809","6","9","1","35","1","1562664478","1562664214","319","[52,96,19,97,76,2,37,42,36,9,93,74,39,27]","130.4"
"509","829","6","9","1","11","1","1562664425","1562664214","319","[100,96,41,43,92,31,39]","387.6"
"510","869","6","9","1","17","1","1562664435","1562664214","319","[26,77]","290.4"
"511","856","6","9","1","83","1","1562664479","1562664214","319","[100,2,59,27,55,39,87]","231.9"
"512","855","6","9","1","34","1","1562664474","1562664214","319","[38,8,91,63,5,64,67,39]","210.4"
"513","815","6","9","1","21","1","1562664463","1562664214","319","[20,59,81]","290.4"
"514","882","6","9","1","48","1","1562664485","1562664214","319","[37,17,100,67,88,73,15,66,12,60,31,69,9,52,42,47,77,43,1,85,45,63,40,24]","210.4"
"515","883","6","9","1","19","1","1562664428","1562664214","319","[15,25,77,10]","290.4"
"516","820","6","9","1","70","1","1562664484","1562664214","319","[15,19,3,71,31,76,22,74,28,40,75,63]","210.4"
"517","868","6","9","1","31","1","1562664473","1562664214","319","[69,22,90,29,56,20,50,100,73,13,53,89]","130.4"
"518","889","6","9","1","12","1","1562664483","1562664214","319","[81,5,8,25,36,20,73,32,37,87,27,83,34,48]","290.4"
"519","831","6","9","1","78","1","1562664483","1562664214","319","[90,58]","156.3"
"520","845","6","9","1","88","1","1562664482","1562664214","319","[60,8,67]","290.4"
"521","890","6","9","1","91","1","1562664478","1562664214","319","[75,60,27,25,38,3,34,84,47,71,6,52,57,55,43,16,48,39,69,74,53,98,79,51,99,72,31,23]","-44.9"
"522","871","6","9","1","10","1","1562664428","1562664214","319","[98,41,9,82,49,75,1,79,44,23,19,47,20,62,50,32]","50.4"
"523","849","6","9","1","46","1","1562664482","1562664214","319","[48,95,67,52,47,8]","210.4"
"524","900","6","9","1","59","1","1562664483","1562664214","319","[8,100,36,38,82,21,81,19,57,97,26,17,71,30,54,22,65]","290.4"
"525","804","6","9","1","55","1","1562664484","1562664214","319","[37,89,17,49,48,31,25,85,39]","290.4"
"526","828","6","9","1","57","1","1562664479","1562664214","319","[10,91,84,85]","290.4"
"527","805","6","9","1","81","1","1562664318","1562664214","319","[97,68,25]","290.4"
"528","837","6","9","1","74","1","1562664475","1562664214","319","[52,68,72,47,8,35,19,98,24,39]","435"
"529","834","6","9","1","14","1","1562664462","1562664214","319","[61,24]","228.1"
"530","813","6","9","1","26","1","1562664466","1562664214","319","[97,17,5,19,71,61,53,48,39]","290.4"
"531","846","6","9","1","85","1","1562664465","1562664214","319","[11,59,28,50,19,5,55,88,25,42,9,33,57,24,44]","50.4"
"532","896","6","9","1","72","1","1562664473","1562664214","319","[19,52,70,74]","228.1"
"533","873","6","9","1","43","1","1562664485","1562664214","319","[37,85,52,40,45,91,29]","210.4"
"534","876","6","9","1","27","1","1562664485","1562664214","319","[64,50,92,9,44]","0"
"535","824","6","9","1","44","1","1562664485","1562664214","319","[85,99,36,62,2,74,17,96,22,54,8,14]","210.4"
"536","894","6","9","1","95","1","1562664476","1562664214","319","[100,1,17,11,21,72,52,19,39,4,60]","155.2"
"537","838","6","9","1","56","1","1562664484","1562664214","319","[87,22,20,63,31]","130.4"
"538","810","6","9","1","100","1","1562664465","1562664214","319","[51]","228.1"
"539","865","6","9","1","47","1","1562664476","1562664214","319","[86,59,46,27,97,19,8,53,10]","290.4"
"540","870","6","9","1","97","1","1562664443","1562664214","319","[100,59,92,78,74,81]","290.4"
"541","861","6","9","1","62","1","1562664484","1562664214","319","[1,92,9,44]","210.4"
"542","864","6","9","1","30","1","1562664485","1562664214","319","[100,37,13,54,34,23,22]","290.4"
"543","826","6","9","1","96","1","1562664482","1562664214","319","[67,8,90]","382.3"
"544","878","6","9","1","69","1","1562664278","1562664214","319","[31,9,64]","515"
"545","885","6","9","1","58","1","1562664479","1562664214","319","[90,78,29]","382.3"
"546","812","6","9","1","9","1","1562664240","1562664214","319","[69]","228.1"
"547","853","6","9","1","53","1","1562664379","1562664214","319","[61,42]","290.4"
"548","821","6","9","1","98","1","1562664468","1562664214","319","[28,78,59,91]","228.1"
"549","892","6","9","1","3","1","1562664485","1562664214","319","[70,39,51,73,41,11]","290.4"
"550","859","6","9","1","18","1","1562664475","1562664214","319","[62,54,4,39]","155.2"
"551","897","6","9","1","71","1","1562664479","1562664214","319","[26,63,42,20]","290.4"
"552","822","6","9","1","45","1","1562664466","1562664214","319","[1,5,60,46,99]","210.4"
"553","839","6","9","1","29","1","1562664481","1562664214","319","[49,17,22,38,82,52,37,3,43,51,58,15,28,10,64,9,4,36,40]","581.8"
"554","811","6","9","1","84","1","1562664485","1562664214","319","[28,97,55,37,63,3,74,66,58,52,44,40]","290.4"
"555","806","6","9","1","65","1","1562664485","1562664214","319","[1,57,7,81,64,52,54,23,39]","210.4"
"556","850","6","9","1","82","1","1562664323","1562664214","319","[27,29,10]","290.4"
"557","858","6","9","1","33","1","1562664485","1562664214","319","[17,97,63,8,30,75,1]","210.4"
"558","832","6","9","1","36","1","1562664452","1562664214","319","[23,29]","290.4"
"559","830","6","9","1","23","1","1562664476","1562664214","319","[12,30,36,1,80,89,37,27,56,51,79,10,52,76,38,40,29,69,90,39,62,32,82,54,58,75,13,11,7,66,100,34,91,65]","-429.6"
"560","872","6","9","1","63","1","1562664484","1562664214","319","[15,81,46,27,56,8,17,9,83,33,77]","210.4"
"561","854","6","9","1","7","1","1562664484","1562664214","319","[49,80,16,32,9,31,23,60]","290.4"
"562","840","6","9","1","39","1","1562664481","1562664214","319","[82,11,48,97,100,42,4,43,34,51,98,95,47,68,15,84,94,65,7,70,3,71,79,23,29,21,80,60,91,22,2,74,81,35,73,27,50,56,16,54,83,89,10,18,75,78]","807.8"
"563","802","6","9","1","15","1","1562664455","1562664214","319","[22,54,27,87]","0"
"564","844","6","9","1","6","1","1562664456","1562664214","319","[91,8]","290.4"
"565","803","6","9","1","8","1","1562664483","1562664214","319","[9,49,18,51,44,36,3,27,28,66,6,67,73,29,60,38,31,45,46,90,25,98]","210.4"
"566","874","6","9","1","49","1","1562664482","1562664214","319","[48,55,94]","290.4"
"567","808","6","9","1","94","1","1562664468","1562664214","319","[81,49,1,31,50,54,59,76]","210.4"
"568","842","6","9","1","86","1","1562664460","1562664214","319","[80,25,89,73,50]","567.3"
"569","835","6","9","1","40","1","1562664481","1562664214","319","[24,76,63,94,70,36,44,12,59,28,99,90,79,10,100,84,93,48,45]","-29.6"
"570","833","6","9","1","32","1","1562664482","1562664214","319","[6,79,50]","290.4"
"571","814","6","9","1","50","1","1562664482","1562664214","319","[49,32,59,93,40,80,86,71]","841.5"
"572","807","6","9","1","67","1","1562664469","1562664214","319","[63,82,90,77,46,15,47,57,66,88,69,96,28]","661.8"
"573","836","6","9","1","2","1","1562664352","1562664214","319","[16,20]","290.4"
"574","887","6","9","1","61","1","1562664479","1562664214","319","[78,54,14,47,8,53,63,60]","515"
"575","819","6","9","1","77","1","1562664425","1562664214","319","[63,19,44,38,25,47,17]","210.4"
"576","825","6","9","1","20","1","1562664395","1562664214","319","[21,2,1,33,71,56,36,32,25,37,55,52,73,70]","50.4"
"577","801","6","9","1","73","1","1562664461","1562664214","319","[31,47,50,52,39]","210.4"
"578","886","6","9","1","92","1","1562664484","1562664214","319","[17,59,48,78,6,70,76,62]","290.4"
"579","898","6","9","1","37","1","1562664480","1562664214","319","[97,8,36,27,59,94,12,52,28,43,45]","290.4"
"580","827","6","9","1","22","1","1562664483","1562664214","319","[10,2,16,54,79,56,30,4,27,18]","130.4"
"581","866","6","9","1","79","1","1562664462","1562664214","319","[30,51,13,43,10,32,70,23,39,58,65,99,40,52,22,91]","-269.6"
"582","817","6","9","1","51","1","1562664474","1562664214","319","[100,71,5,13,63,43,56,23,10,15,32,26,91,66,99,79,40,54,39]","195"
"583","818","6","9","1","87","1","1562664485","1562664214","319","[34,94,20,8,16,38,43,100,13,55,89,75]","113.2"
"584","851","6","9","1","54","1","1562664484","1562664214","319","[8,48,64,36,97,17,49,53,32,25,43,16,10,89,75,40,62,28,50,86,74,13,65,22,39]","210.4"
"585","879","6","9","1","52","1","1562664484","1562664214","319","[19,93,67,81,25,12,61,73,45,29,20]","50.4"
"586","857","6","9","1","13","1","1562664469","1562664214","319","[8,15,79,5,31,51,67,20,70,29,39]","210.4"
"587","863","6","9","1","1","1","1562664469","1562664214","319","[83,33,62,45,94]","130.4"
"588","862","6","9","1","64","1","1562664456","1562664214","319","[5,69,9]","290.4"
"589","891","6","9","1","5","1","1562664442","1562664214","319","[16,64]","290.4"
"590","841","6","9","1","80","1","1562664484","1562664214","319","[100,81,49,22,41,96,50,23]","290.4"
"591","852","6","9","1","89","1","1562664475","1562664214","319","[86,87]","268"
"592","895","6","9","1","76","1","1562664476","1562664214","319","[47,69,2,92,21,38,41,94,87,62,27,44,35]","210.4"
"593","816","6","9","1","16","1","1562664301","1562664214","319","[5,2]","290.4"
"594","877","6","9","1","42","1","1562664480","1562664214","319","[36,53,17,22,27,54,37,85,55]","290.4"
"595","893","6","9","1","28","1","1562664485","1562664214","319","[72,90,32,78,10,60,73,84,44,67]","290.4"
"596","899","6","9","1","60","1","1562664485","1562664214","319","[54,90,47,76,7,88,71,45,61]","130.4"
"597","884","6","9","1","75","1","1562664484","1562664214","319","[29,9,70,33]","290.4"
"598","847","6","9","1","38","1","1562664477","1562664214","319","[23,34,100]","290.4"
"599","880","6","9","1","24","1","1562664478","1562664214","319","[27,40,85]","290.4"
"600","848","6","9","1","90","1","1562664462","1562664214","319","[81,29,27,96]","156.3"
