"id","id_subj","round","session","period","id_grp","grp","time","time_start","duration","links","payoff"
"1","29","1","1","1","48","1","1558688842","1558688592","250","[7,45,41,49]","155"
"2","38","1","1","1","19","1","1558688840","1558688592","250","[22,43,32]","155"
"3","5","1","1","1","44","1","1558688835","1558688592","250","[32,25,17,33,48,22,50,8,30,37,36,4]","346.9"
"4","33","1","1","1","26","1","1558688838","1558688592","250","[41,23,35,16,12,43,42,28]","35.1"
"5","2","1","1","1","7","1","1558688842","1558688592","250","[26,29,43,34,33,11,36,30,28]","155"
"6","20","1","1","1","1","1","1558688840","1558688592","250","[13,15,6,33,40,48,20,35,26,21]","155"
"7","36","1","1","1","34","1","1558688839","1558688592","250","[17,41,31,22,44,24,9,14,5]","35.1"
"8","34","1","1","1","9","1","1558688842","1558688592","250","[8,42,15,32,24,44,18]","115"
"9","30","1","1","1","10","1","1558688840","1558688592","250","[38,11,46,29,5,34,25,20,41,43,39,49,6]","75"
"10","1","1","1","1","22","1","1558688831","1558688592","250","[17,1,41,36,32,5,9,18,34,19,44,35,20,50,21,6,3,29,4,45]","-44.9"
"11","18","1","1","1","11","1","1558688839","1558688592","250","[38,26,28,1,16,39,14,12,15,2,33,7,13,50,30,40,41,42,48,23,46,35,37,49,25]","-44.9"
"12","39","1","1","1","17","1","1558688826","1558688592","250","[37,11,29]","84"
"13","19","1","1","1","49","1","1558688810","1558688592","250","[23,37,46,48,5,10,26,25,16]","35.1"
"14","10","1","1","1","43","1","1558688841","1558688592","250","[23,35,38,27,12,26,28,29,42,47]","115"
"15","16","1","1","1","30","1","1558688837","1558688592","250","[41,26,43,21,7,4,8,38,20,24,40,50,2,15,1,11]","75"
"16","26","1","1","1","8","1","1558688830","1558688592","250","[18,9,41,21,3,35,23,40,34,26,42,24,49,43,13,36,45,31,20,19,29,50]","-44.9"
"17","27","1","1","1","4","1","1558688841","1558688592","250","[8,2,29,50,7,32,30,37,18,13,11,38,36,9,34,1,27,22,17]","266.9"
"18","28","1","1","1","6","1","1558688840","1558688592","250","[29,15,11,33,28]","232.4"
"19","46","1","1","1","50","1","1558688837","1558688592","250","[35,8,25,27,20,5,23,4,16,24,21,34,46,36,40,45,17,7,38,28,14,10]","-44.9"
"20","41","1","1","1","15","1","1558688831","1558688592","250","[6,13,29]","155"
"21","23","1","1","1","13","1","1558688837","1558688592","250","[1,33,23,7,36,2,15,37]","75"
"22","14","1","1","1","23","1","1558688821","1558688592","250","[49,29,5,47,27,42,12,48,10]","35.1"
"23","8","1","1","1","41","1","1558688842","1558688592","250","[32,14,17,35,43,23,48,21,42,39,10,27,47,46,12,26,38,34,49]","-44.9"
"24","32","1","1","1","40","1","1558688831","1558688592","250","[26,25,49,48,47,35,18,44,7,46,8,34,43,20,3,2,16]","75"
"25","49","1","1","1","39","1","1558688837","1558688592","250","[46,3,11,29,10,25]","115"
"26","50","1","1","1","47","1","1558688838","1558688592","250","[27,25,44,46,43,40,21,37,39,23,11]","75"
"27","22","1","1","1","45","1","1558688841","1558688592","250","[26,25,6,39,41,31,42,29,28,46,21,11,24,22,19,1,12]","35.1"
"28","48","1","1","1","20","1","1558688837","1558688592","250","[36,41,8,38,16,12,46,34,3,43,7,19,6,10,5,35,26,15]","115"
"29","9","1","1","1","33","1","1558688832","1558688592","250","[38,11,6,13,28,50,12,49,44,9,26,45]","35.1"
"30","35","1","1","1","21","1","1558688842","1558688592","250","[35,9,36,12,42,1,37,5,13,50,6,15,48,45,47]","75"
"31","24","1","1","1","25","1","1558688839","1558688592","250","[35,23,46,18,39,8,11]","115"
"32","47","1","1","1","29","1","1558688841","1558688592","250","[25,30,26,42,6]","120.7"
"33","4","1","1","1","12","1","1558688839","1558688592","250","[29,16,18,33,23,11]","35.1"
"34","25","1","1","1","32","1","1558688839","1558688592","250","[26,17,24,4,25,50,30,22,19,44,33,40,3,9,34,18]","-4.9"
"35","31","1","1","1","37","1","1558688806","1558688592","250","[33,17,50,7,4]","202.7"
"36","17","1","1","1","31","1","1558688838","1558688592","250","[47,50,34,45,3,8]","75"
"37","15","1","1","1","35","1","1558688838","1558688592","250","[28,16,45,10,41,26,43]","115"
"38","44","1","1","1","28","1","1558688830","1558688592","250","[17,37,29,25,6,10,26]","155"
"39","43","1","1","1","42","1","1558688825","1558688592","250","[23,41]","155"
"40","40","1","1","1","27","1","1558688753","1558688592","250","[1,35,17,32,38,14,20,3,25,23,24,50,46]","35.1"
"41","6","1","1","1","38","1","1558688842","1558688592","250","[35,36,16,29,8]","84"
"42","37","1","1","1","5","1","1558688813","1558688592","250","[18,42,40,26,49,7,11,50]","155"
"43","13","1","1","1","46","1","1558688839","1558688592","250","[25,20,42,35,7,49,18,19,23,27,45,24]","35.1"
"44","12","1","1","1","14","1","1558688840","1558688592","250","[28,41,24,35,11,27,34,21,16,50,9]","-4.9"
"45","45","1","1","1","24","1","1558688839","1558688592","250","[8,32,34,14,9,50,27,30,45]","-125"
"46","42","1","1","1","2","1","1558688840","1558688592","250","[4,28,16,17,40,45,39,42,26,13]","115"
"47","11","1","1","1","3","1","1558688832","1558688592","250","[7,50,8,6,31,46,40,21,19,18,15,47,29]","115"
"48","21","1","1","1","36","1","1558688842","1558688592","250","[9,2,44,38,37,32]","202.7"
"49","7","1","1","1","18","1","1558688836","1558688592","250","[22,50,11,21,30,12]","155"
"50","3","1","1","1","16","1","1558688836","1558688592","250","[12,42,15,1,33,26]","155"
"51","25","2","1","1","18","1","1558689308","1558689059","250","[5,42,41,13,44,3,24]","125"
"52","36","2","1","1","21","1","1558689304","1558689059","250","[26,38,30,50,11,35]","163.4"
"53","16","2","1","1","19","1","1558689313","1558689059","250","[35,38,18,12,25,26,29,34,5,33,42,47,40,4,22,8,46,15,13]","3.4"
"54","44","2","1","1","8","1","1558689310","1558689059","250","[15,37,46,6,21,23,13]","83.4"
"55","14","2","1","1","20","1","1558689301","1558689059","250","[32,41,13,19,22,18,30,24,10]","83.4"
"56","34","2","1","1","9","1","1558689309","1558689059","250","[44,40,2,17]","163.4"
"57","29","2","1","1","26","1","1558689271","1558689059","250","[29,19]","163.4"
"58","20","2","1","1","28","1","1558689309","1558689059","250","[16,13,23]","163.4"
"59","9","2","1","1","45","1","1558689302","1558689059","250","[25,36,7,30,40]","163.4"
"60","23","2","1","1","11","1","1558689250","1558689059","250","[22,46]","163.4"
"61","33","2","1","1","43","1","1558689313","1558689059","250","[23,37]","163.4"
"62","47","2","1","1","2","1","1558689313","1558689059","250","[7,15,49,47]","163.4"
"63","24","2","1","1","10","1","1558689312","1558689059","250","[27,38,7,28,5,42,2,36]","163.4"
"64","12","2","1","1","32","1","1558689285","1558689059","250","[33,42,20,48,5,31,40,22,24]","83.4"
"65","45","2","1","1","31","1","1558689310","1558689059","250","[28,17,35,22,21]","163.4"
"66","4","2","1","1","23","1","1558689294","1558689059","250","[8,43,16,28,5]","123.4"
"67","49","2","1","1","4","1","1558689314","1558689059","250","[27,24,47]","163.4"
"68","39","2","1","1","30","1","1558689305","1558689059","250","[18,20,13]","163.4"
"69","28","2","1","1","27","1","1558689305","1558689059","250","[39,3,28,2,26,4,22,30]","163.4"
"70","10","2","1","1","3","1","1558689306","1558689059","250","[15,16,26,25,44]","163.4"
"71","8","2","1","1","33","1","1558689302","1558689059","250","[26,31,32,18,14,12,17,19,36,10,8,6,27,30,16,46,48,22,42,11,41,21]","-116.6"
"72","3","2","1","1","24","1","1558689301","1558689059","250","[43,22,25]","163.4"
"73","2","2","1","1","14","1","1558689314","1558689059","250","[27,48,7,15,36,43,23,28,5,33]","83.4"
"74","43","2","1","1","7","1","1558689309","1558689059","250","[49,33,48,14,47]","123.4"
"75","31","2","1","1","1","1","1558689312","1558689059","250","[4,45,35,15,6,7,37]","123.4"
"76","6","2","1","1","44","1","1558689307","1558689059","250","[35,11,16,2,47,38,3,34]","163.4"
"77","27","2","1","1","22","1","1558689301","1558689059","250","[32,41,27,11,15,14,24,9,20,1,19,31,33,37]","-116.6"
"78","38","2","1","1","39","1","1558689255","1558689059","250","[16,36]","163.4"
"79","35","2","1","1","37","1","1558689313","1558689059","250","[17,43,28,16,33,1,41,18,39,11,47,2,12,36]","3.4"
"80","42","2","1","1","25","1","1558689310","1558689059","250","[49,42,39,15,24,48,40,3,8]","123.4"
"81","41","2","1","1","15","1","1558689311","1558689059","250","[28,16,40,26,22]","163.4"
"82","22","2","1","1","40","1","1558689306","1558689059","250","[9,45,12,29,48,15,32,3,5,30,28,25,49,43,44]","3.4"
"83","32","2","1","1","47","1","1558689313","1558689059","250","[26,27,25,46,44,16,4,7,28,34,18,21,39,38,43,11,9,5,48,2,36,42,41,37]","3.4"
"84","21","2","1","1","49","1","1558689274","1558689059","250","[37,2,8,41,30,23,17,10,45,46,4]","123.4"
"85","7","2","1","1","6","1","1558689311","1558689059","250","[29,7,36,1,8]","123.4"
"86","13","2","1","1","36","1","1558689282","1558689059","250","[28,35,27,24,6,7,43,8,38,14,45,18,3,11,39,37,16,33,10,2,4,9]","-76.6"
"87","26","2","1","1","35","1","1558689312","1558689059","250","[38,1,31,21,14,40,17,42,16,7,43,48,23,37,41]","83.4"
"88","5","2","1","1","41","1","1558689314","1558689059","250","[26,17,43,15,10,4,37,33]","163.4"
"89","46","2","1","1","17","1","1558689302","1558689059","250","[49,18,26,16,30,3,21,9,14,7]","163.4"
"90","19","2","1","1","29","1","1558689304","1558689059","250","[26,1,14,38,50,20,16,7,19]","123.4"
"91","50","2","1","1","42","1","1558689302","1558689059","250","[27,43,5,44,33]","163.4"
"92","40","2","1","1","16","1","1558689151","1558689059","250","[49,33,14,21,36,39,6,24]","123.4"
"93","30","2","1","1","34","1","1558689275","1558689059","250","[19,13,16,41,39,17]","163.4"
"94","17","2","1","1","12","1","1558689308","1558689059","250","[40,16,28,41,48,9,33,39,7,37,42,18]","123.4"
"95","11","2","1","1","46","1","1558689290","1558689059","250","[37,8,25,40,17,10,34,39,23,7,11,49,38,35]","123.4"
"96","15","2","1","1","5","1","1558689279","1558689059","250","[27,42,17,8,14,4,25,44,9,47]","123.4"
"97","37","2","1","1","48","1","1558689308","1558689059","250","[17,16,43,15,39,3,2,35,38,45,42,7]","163.4"
"98","18","2","1","1","50","1","1558689084","1558689059","250","[17,26,29,13]","163.4"
"99","1","2","1","1","13","1","1558689307","1558689059","250","[20,50,34,30,16,18,14,8,44,39,28,26,38,48,41,3,7,36,45,19]","85"
"100","48","2","1","1","38","1","1558689306","1558689059","250","[34,49,45,23,14,30,11,27,21,10]","163.4"
"101","23","3","1","1","27","1","1558689788","1558689495","255","[20,43,42,2]","150"
"102","47","3","1","1","14","1","1558689789","1558689495","255","[50,31,22]","150"
"103","18","3","1","1","42","1","1558689789","1558689495","255","[43,49,33,22,35,29]","198.7"
"104","39","3","1","1","21","1","1558689709","1558689495","255","[7,45]","150"
"105","16","3","1","1","34","1","1558689786","1558689495","255","[36,19,27,30,3,23,6,45,24,17,39,5,4,10,47,28,29]","378"
"106","36","3","1","1","8","1","1558689779","1558689495","255","[49,47,36,50,12,18,48,40,16,31,26,41,11,29]","110"
"107","25","3","1","1","31","1","1558689778","1558689495","255","[14,12,41,19,50,8,44]","70"
"108","13","3","1","1","35","1","1558689736","1558689495","255","[2,34,10,29,16,47,22,30,42,27,18,9,43,15]","82.5"
"109","28","3","1","1","29","1","1558689789","1558689495","255","[28,36,1,18,24,38,41,6,48,23,43,49,21,19,4,37,5,11,27,10,9]","110"
"110","8","3","1","1","38","1","1558689745","1558689495","255","[32,17,49,10,46,25,11,28,14,7,24]","264.9"
"111","19","3","1","1","44","1","1558689789","1558689495","255","[1,26,37,31,12,47,8,35,18]","150"
"112","40","3","1","1","24","1","1558689731","1558689495","255","[49,8,42,47,43,38,35,46,25,21,26,9,16,11,2,31,48,44,36,13]","-9.9"
"113","32","3","1","1","43","1","1558689772","1558689495","255","[31,1,28,48,47,41,37,27,26,5,42]","377.9"
"114","38","3","1","1","10","1","1558689774","1558689495","255","[39,38]","118.2"
"115","1","3","1","1","45","1","1558689777","1558689495","255","[27,36,29,18,47,20,38,7,48,24,41,42,19,21,23,17,39,34,22,37,43,49,8,46,12,6,26,33,15,30,28,3]","30.1"
"116","46","3","1","1","19","1","1558689757","1558689495","255","[38,8,32,16,21,50,24,31]","150"
"117","33","3","1","1","37","1","1558689780","1558689495","255","[43,20,48]","150"
"118","31","3","1","1","1","1","1558689786","1558689495","255","[18,36,29]","150"
"119","34","3","1","1","49","1","1558689776","1558689495","255","[41,9,20,14]","150"
"120","6","3","1","1","30","1","1558689771","1558689495","255","[38,41,22,40,1,46,9]","150"
"121","41","3","1","1","12","1","1558689774","1558689495","255","[33,29,41,26,11,14]","200.1"
"122","27","3","1","1","7","1","1558689787","1558689495","255","[23,3,20,50,36,19,24,21,42,14,46]","70"
"123","4","3","1","1","50","1","1558689785","1558689495","255","[33,18,38,41,48,1,19,16,6,28]","70"
"124","49","3","1","1","6","1","1558689789","1558689495","255","[20,16,34]","119"
"125","24","3","1","1","48","1","1558689790","1558689495","255","[8,26,41,40,16,24]","150"
"126","22","3","1","1","2","1","1558689777","1558689495","255","[16,11,6,37,9,27,47,42,32]","30.1"
"127","14","3","1","1","36","1","1558689787","1558689495","255","[50,24,7,1,13,9]","70"
"128","5","3","1","1","5","1","1558689787","1558689495","255","[27,18,4,9,28,30]","150"
"129","2","3","1","1","39","1","1558689790","1558689495","255","[37,24,5,46,14,35,44,47,17,38,28,19,23,2,27,3,1,7,11,30,48,22,34]","119"
"130","50","3","1","1","23","1","1558689788","1558689495","255","[40,4,19,44,7]","150"
"131","17","3","1","1","22","1","1558689779","1558689495","255","[38,30,14,20]","110"
"132","45","3","1","1","4","1","1558689787","1558689495","255","[23,34,15,5,29]","30.1"
"133","3","3","1","1","40","1","1558689788","1558689495","255","[3,47,11,16,6,17,13]","150"
"134","26","3","1","1","20","1","1558689785","1558689495","255","[49,22,10,37,47,42,38,48,25,9,40,18]","110"
"135","9","3","1","1","18","1","1558689789","1558689495","255","[8,39,50]","150"
"136","42","3","1","1","9","1","1558689789","1558689495","255","[41,49,46,5,2,17]","30.1"
"137","12","3","1","1","11","1","1558689590","1558689495","255","[27,12,41,16,2,18,42,26,29]","449.5"
"138","7","3","1","1","15","1","1558689789","1558689495","255","[25,17,45,4]","70"
"139","30","3","1","1","26","1","1558689788","1558689495","255","[50,41,34,11,1,39,15]","119.5"
"140","15","3","1","1","28","1","1558689777","1558689495","255","[41,50,46,36,24,32,9]","110"
"141","44","3","1","1","25","1","1558689786","1558689495","255","[46,30,23,22,15,34,24,7]","150"
"142","35","3","1","1","47","1","1558689785","1558689495","255","[42,41,50,37,27,1,33,44,49,31,17,16,14,23,45,30,13,28,2,40]","30.1"
"143","43","3","1","1","16","1","1558689773","1558689495","255","[38,36,50,2]","150"
"144","21","3","1","1","46","1","1558689790","1558689495","255","[26,37,27,11,30,24,28]","110"
"145","29","3","1","1","3","1","1558689789","1558689495","255","[1,7,8,45]","150"
"146","20","3","1","1","41","1","1558689789","1558689495","255","[18,11,39,9]","150"
"147","10","3","1","1","33","1","1558689789","1558689495","255","[1,12]","83"
"148","37","3","1","1","32","1","1558689754","1558689495","255","[9,38,47,40,28]","150"
"149","48","3","1","1","17","1","1558689782","1558689495","255","[9,30,50,15,29]","150"
"150","11","3","1","1","13","1","1558689741","1558689495","255","[36,22,33,17,20,40,41,47,25,24]","70"
"152","50","4","1","1","19","1","1558690071","1558689925","295","[23,9,38,20,3]","151.2"
"151","47","4","1","1","33","1","1558690076","1558689925","295","[29,22]","151.2"
"153","40","4","1","1","10","1","1558689948","1558689925","295","[36,49,15,27]","111.2"
"154","18","4","1","1","20","1","1558690059","1558689925","295","[5,21,48,39,41,12]","151.2"
"155","6","4","1","1","41","1","1558690075","1558689925","295","[26,37,35,4,32,50]","47.4"
"156","25","4","1","1","42","1","1558690063","1558689925","295","[1,37,40,11,49]","151.2"
"157","14","4","1","1","15","1","1558690072","1558689925","295","[38,18,26,10,42,13,35,14,40,41,43,34,28,19]","31.2"
"158","39","4","1","1","48","1","1558690055","1558689925","295","[45,39,46]","151.2"
"159","16","4","1","1","31","1","1558690063","1558689925","295","[28,23,49,42,20,41,47,15,19,13,45,43,35,37,44,21,36]","31.2"
"160","21","4","1","1","47","1","1558690077","1558689925","295","[37,21,46,23,50]","111.2"
"161","32","4","1","1","14","1","1558690078","1558689925","295","[27,1,16,35,41,33,28,9,12,29,19,34]","31.2"
"162","22","4","1","1","17","1","1558690068","1558689925","295","[32,24,39,23,47,29]","111.2"
"163","23","4","1","1","39","1","1558690073","1558689925","295","[17,48,50]","151.2"
"164","11","4","1","1","12","1","1558690074","1558689925","295","[49,27,2]","118.5"
"165","38","4","1","1","9","1","1558690051","1558689925","295","[36,11,33,32,26,7,6,37,25,45,14,44,50,16,19,43,4,28,40,22]","66.3"
"166","44","4","1","1","44","1","1558690073","1558689925","295","[10,35,48,19,41,43,31,15,9,25,8,32,14]","31.2"
"167","42","4","1","1","46","1","1558690075","1558689925","295","[47,48,36,42,26,3,50]","71.2"
"168","45","4","1","1","18","1","1558690076","1558689925","295","[38,2,43,29]","151.2"
"169","29","4","1","1","1","1","1558690069","1558689925","295","[28,14,42]","151.2"
"170","27","4","1","1","24","1","1558690076","1558689925","295","[17,32,31,43,42,50,46,23]","151.2"
"171","19","4","1","1","16","1","1558690078","1558689925","295","[33,22,11,29,8,36,9]","111.2"
"172","30","4","1","1","30","1","1558690068","1558689925","295","[11,34,19,27,33,36,26,41]","151.2"
"173","17","4","1","1","3","1","1558690075","1558689925","295","[46,19]","151.2"
"174","34","4","1","1","6","1","1558690069","1558689925","295","[40,9,24]","151.2"
"175","15","4","1","1","25","1","1558690072","1558689925","295","[49,28,26,33,15,16,44,36]","111.2"
"176","43","4","1","1","45","1","1558690076","1558689925","295","[32,9,21,5,22]","151.2"
"177","24","4","1","1","32","1","1558690076","1558689925","295","[37,25,46,44,10,24]","111.2"
"178","26","4","1","1","11","1","1558690078","1558689925","295","[38,1,18,15,12,35,6,28]","367.4"
"179","13","4","1","1","8","1","1558690072","1558689925","295","[29,16,10,11,28,50,26,20,5,46,1,23,4,37,47,15,22,43,13,44,40,21]","-8.8"
"180","4","4","1","1","4","1","1558690059","1558689925","295","[35,39,28,41]","107.6"
"181","49","4","1","1","49","1","1558690077","1558689925","295","[10,42,31]","111.2"
"182","8","4","1","1","40","1","1558690073","1558689925","295","[8,21,6,35,9,15]","-8.8"
"183","36","4","1","1","26","1","1558690063","1558689925","295","[43,15,30,2,25]","111.2"
"184","31","4","1","1","50","1","1558690078","1558689925","295","[32,35,28,10,8,46,43,30,11,12,47]","111.2"
"185","35","4","1","1","23","1","1558690076","1558689925","295","[38,45,22,17,5,33,43,37,39,41,12]","151.2"
"186","46","4","1","1","2","1","1558690077","1558689925","295","[18,43,27,29,11,10]","151.2"
"187","3","4","1","1","36","1","1558690075","1558689925","295","[50,16,25]","151.2"
"188","7","4","1","1","27","1","1558690070","1558689925","295","[35,2,44,8,14,10,1,12,37,32,25]","146.3"
"189","33","4","1","1","35","1","1558690068","1558689925","295","[38,47,14,40,27]","111.2"
"190","10","4","1","1","5","1","1558690076","1558689925","295","[7,20,22,23]","111.2"
"191","12","4","1","1","38","1","1558689980","1558689925","295","[11,15,18,30,43,22,20]","538.2"
"192","5","4","1","1","43","1","1558690075","1558689925","295","[37,31]","151.2"
"193","41","4","1","1","7","1","1558690076","1558689925","295","[15,8,39,12,32,49,9,22]","118.5"
"194","1","4","1","1","13","1","1558690067","1558689925","295","[8,47,15,50,31,29,11]","111.2"
"195","20","4","1","1","29","1","1558690078","1558689925","295","[19,11,26,33,4,34]","151.2"
"196","28","4","1","1","34","1","1558690060","1558689925","295","[36,14,42,30,29,33]","111.2"
"197","37","4","1","1","22","1","1558690075","1558689925","295","[19,33,29,5]","151.2"
"198","48","4","1","1","37","1","1558690076","1558689925","295","[48,27,43,32]","111.2"
"199","2","4","1","1","21","1","1558690060","1558689925","295","[47,20,31,13,40,35,45,19,8,2,11,4,48,39,34,27,22,25,18,12]","-8.8"
"200","9","4","1","1","28","1","1558690070","1558689925","295","[11,4]","222.4"
"201","18","5","1","1","33","1","1558690423","1558690331","153","[6,13,25]","155.9"
"202","6","5","1","1","21","1","1558690420","1558690331","153","[14,38,43,27]","115.9"
"203","23","5","1","1","38","1","1558690421","1558690331","153","[21,19]","155.9"
"204","43","5","1","1","3","1","1558690428","1558690331","153","[33,11,23,39,5,18,9,35,17]","115.9"
"205","13","5","1","1","17","1","1558690427","1558690331","153","[49,28,25,41,18,26,10,35,29,15,43,13,21,40,3,50,9,32,46,6,33,7,2,30,16,42,48,12,31,1,44,8,11,45,23,22,34,37,5,47]","-164.1"
"206","24","5","1","1","39","1","1558690429","1558690331","153","[34,13,43,48,40,28,45,11,23,8,1,30,2]","75.9"
"207","1","5","1","1","8","1","1558690413","1558690331","153","[47,15,34,9,12,44]","75.9"
"208","42","5","1","1","24","1","1558690429","1558690331","153","[30,18,29]","155.9"
"209","25","5","1","1","14","1","1558690397","1558690331","153","[34,21,18]","155.9"
"210","48","5","1","1","27","1","1558690424","1558690331","153","[11,16,4,47,15,45,39,25,21]","115.9"
"211","50","5","1","1","1","1","1558690420","1558690331","153","[12,47,41]","115.9"
"212","22","5","1","1","41","1","1558690425","1558690331","153","[1,17,16,26]","75.9"
"213","32","5","1","1","37","1","1558690409","1558690331","153","[26,17,5,43,8,23,22,11,25]","115.9"
"214","31","5","1","1","26","1","1558690419","1558690331","153","[10,41,46,45,11,25]","155.9"
"215","36","5","1","1","6","1","1558690425","1558690331","153","[33,5,36,30,9]","115.9"
"216","16","5","1","1","13","1","1558690426","1558690331","153","[25,32,9,33,4,31,29,17,36,37]","115.9"
"217","29","5","1","1","46","1","1558690412","1558690331","153","[20,31]","203.6"
"218","11","5","1","1","11","1","1558690427","1558690331","153","[47,36,7,15,31]","35.9"
"219","20","5","1","1","23","1","1558690401","1558690331","153","[30,11]","121.2"
"220","27","5","1","1","10","1","1558690421","1558690331","153","[28,26,29,44,6,30,19]","115.9"
"221","38","5","1","1","36","1","1558690415","1558690331","153","[10,25,28,15,24,29,46,11,35,9,6,2,30]","-4.1"
"222","15","5","1","1","35","1","1558690429","1558690331","153","[32,49,9,25,3,6,36,17]","75.9"
"223","9","5","1","1","43","1","1558690410","1558690331","153","[5,42,37]","155.9"
"224","14","5","1","1","18","1","1558690422","1558690331","153","[14,11,1,38,8,29,2,3,24,48,6,23,34,25,10,32,16]","113.7"
"225","45","5","1","1","48","1","1558690422","1558690331","153","[12,18,39]","115.9"
"226","44","5","1","1","28","1","1558690423","1558690331","153","[12,29,31]","121.2"
"227","19","5","1","1","2","1","1558690429","1558690331","153","[1,15,18,13,11,39,27,36]","115.9"
"228","34","5","1","1","7","1","1558690426","1558690331","153","[17,11]","155.9"
"229","4","5","1","1","4","1","1558690428","1558690331","153","[50,23,40,13]","115.9"
"230","10","5","1","1","30","1","1558690386","1558690331","153","[5,7,24,23,45]","273.7"
"231","47","5","1","1","25","1","1558690427","1558690331","153","[36,44]","155.9"
"232","41","5","1","1","44","1","1558690421","1558690331","153","[1,5,25,29,42,31,45,10]","115.9"
"233","40","5","1","1","9","1","1558690362","1558690331","153","[8,31,6]","115.9"
"234","46","5","1","1","40","1","1558690427","1558690331","153","[4,19,39]","115.9"
"235","3","5","1","1","42","1","1558690426","1558690331","153","[43,45,17]","155.9"
"236","33","5","1","1","19","1","1558690419","1558690331","153","[38,8,40,11,9,23]","155.9"
"237","30","5","1","1","20","1","1558690424","1558690331","153","[17,30,19,11,39,46]","84.4"
"238","35","5","1","1","34","1","1558690427","1558690331","153","[8,31,23,5,39]","115.9"
"239","5","5","1","1","49","1","1558690353","1558690331","153","[35,17]","155.9"
"240","8","5","1","1","16","1","1558690404","1558690331","153","[38,27,18,40,37,3,17,41]","75.9"
"241","28","5","1","1","31","1","1558690424","1558690331","153","[24,5,11,23,46,9]","388.5"
"242","26","5","1","1","15","1","1558690414","1558690331","153","[1,8,18,47,31,11,22,34,5]","115.9"
"243","37","5","1","1","47","1","1558690424","1558690331","153","[1,5,9,42,20,25,11,27]","115.9"
"244","12","5","1","1","22","1","1558690390","1558690331","153","[44,40,15,42,37]","155.9"
"245","39","5","1","1","5","1","1558690416","1558690331","153","[50,34]","155.9"
"246","21","5","1","1","29","1","1558690423","1558690331","153","[38,1,8,14,28,10,20,41,36]","273.7"
"247","7","5","1","1","45","1","1558690427","1558690331","153","[35,23,44,30]","155.9"
"248","2","5","1","1","12","1","1558690428","1558690331","153","[49,33,8,9,24,11,30,23,48,17,1]","75.9"
"249","17","5","1","1","50","1","1558690414","1558690331","153","[44,5,4]","155.9"
"250","49","5","1","1","32","1","1558690427","1558690331","153","[18,3]","121.2"
"251","22","6","1","1","37","1","1558690964","1558690719","98","[46,21]","141.2"
"252","50","6","1","1","33","1","1558690998","1558690719","98","[15,36,26,13]","141.2"
"253","48","6","1","1","14","1","1558690998","1558690719","98","[24,44,17,28,11,33,13,39,34,46,5,40]","141.2"
"254","19","6","1","1","19","1","1558690998","1558690719","98","[1,27,11,6,30,36,17,13]","249.1"
"255","23","6","1","1","49","1","1558690976","1558690719","98","[39,25]","141.2"
"256","29","6","1","1","38","1","1558690998","1558690719","98","[21,44,35]","141.2"
"257","13","6","1","1","15","1","1558690943","1558690719","98","[40,44,47]","-31.6"
"258","43","6","1","1","16","1","1558690998","1558690719","98","[43,44,25,24,27,19,7,9,21]","141.2"
"259","2","6","1","1","36","1","1558690999","1558690719","98","[9,7]","274.4"
"260","18","6","1","1","24","1","1558690988","1558690719","98","[19,43,7,6,30]","56.5"
"261","6","6","1","1","34","1","1558690973","1558690719","98","[14,7,36,29,31,30]","141.2"
"262","5","6","1","1","46","1","1558690990","1558690719","98","[25,23,26,31,37]","141.2"
"263","47","6","1","1","22","1","1558690997","1558690719","98","[11,13]","141.2"
"264","8","6","1","1","1","1","1558690999","1558690719","98","[7,8,47,11,32,2]","101.2"
"265","44","6","1","1","2","1","1558690988","1558690719","98","[23,19,1,36,32,48]","101.2"
"266","46","6","1","1","39","1","1558690991","1558690719","98","[27,35,49,12]","101.2"
"267","9","6","1","1","8","1","1558690992","1558690719","98","[45,1]","141.2"
"268","16","6","1","1","32","1","1558690988","1558690719","98","[49,7,22,44,11,14,34,13,29,1,39,47,4,16,31,6,21,36,46,20,12,38,45,28,25,43,42,41,50,19,18,48,2,8]","-18.8"
"269","31","6","1","1","3","1","1558690989","1558690719","98","[34,10,21,48,20,26]","141.2"
"270","32","6","1","1","45","1","1558690995","1558690719","98","[31,8,37,29,20,16,47,50,44,26,13,30,42]","61.2"
"271","20","6","1","1","17","1","1558690997","1558690719","98","[7,35,42,28,19,16]","111.2"
"272","1","6","1","1","10","1","1558690959","1558690719","98","[17,29,16,48]","141.2"
"273","33","6","1","1","35","1","1558690997","1558690719","98","[43,25,42,49,20]","141.2"
"274","40","6","1","1","44","1","1558690747","1558690719","98","[8,17,5,38]","141.2"
"275","34","6","1","1","4","1","1558690973","1558690719","98","[28,32]","141.2"
"276","42","6","1","1","42","1","1558690988","1558690719","98","[45,11,26,21,31,16]","141.2"
"277","11","6","1","1","27","1","1558690990","1558690719","98","[21,39]","141.2"
"278","41","6","1","1","13","1","1558690965","1558690719","98","[35,50,22,33,16,30,19,47]","101.2"
"279","24","6","1","1","30","1","1558690999","1558690719","98","[22,10,33,15,8,11,43,25,26,21]","141.2"
"280","25","6","1","1","6","1","1558690981","1558690719","98","[1,22,50,9,19]","141.2"
"281","21","6","1","1","11","1","1558690998","1558690719","98","[22,40,15,20,30]","101.2"
"282","14","6","1","1","9","1","1558690958","1558690719","98","[16,32,30,6,41,36,47]","439.4"
"283","38","6","1","1","23","1","1558690986","1558690719","98","[29,46,2,21]","61.2"
"284","10","6","1","1","48","1","1558690988","1558690719","98","[50,13,10]","141.2"
"285","45","6","1","1","50","1","1558690993","1558690719","98","[48,47,14,25]","141.2"
"286","35","6","1","1","21","1","1558690819","1558690719","98","[8,5,16,23,37,17,48,18,2,41,4,43,36,24,6,31,12,15,47,1,49,9,42,30,19,40,38,33,13,34,14,7,32,27,35,29,3,45,11,20,28,46,22,39,44,10,50,25,26]","-298.8"
"287","12","6","1","1","29","1","1558690747","1558690719","98","[44,23,10,3,5]","141.2"
"288","39","6","1","1","18","1","1558690995","1558690719","98","[12,21,32]","101.2"
"289","3","6","1","1","28","1","1558690980","1558690719","98","[4,21]","141.2"
"290","4","6","1","1","26","1","1558690934","1558690719","98","[47,3,33,45]","101.2"
"291","27","6","1","1","25","1","1558690977","1558690719","98","[50,3,43,7,35,36,5,31,49,9,20,6]","61.2"
"292","28","6","1","1","47","1","1558690999","1558690719","98","[44,40,35,24,15,10,28,27,20,41]","-66.6"
"293","7","6","1","1","41","1","1558690998","1558690719","98","[7,34,11,19,13,22,47]","-31.6"
"294","36","6","1","1","31","1","1558690974","1558690719","98","[40,22,45,34,26,27,7]","141.2"
"295","15","6","1","1","43","1","1558690995","1558690719","98","[36,8,25,33,34,21,32]","101.2"
"296","30","6","1","1","40","1","1558690999","1558690719","98","[44,27,14,29,5,6]","141.2"
"297","26","6","1","1","7","1","1558690998","1558690719","98","[22,24,27,47,36]","131.9"
"298","37","6","1","1","5","1","1558690994","1558690719","98","[8,22,30,40,44]","141.2"
"299","49","6","1","1","20","1","1558690977","1558690719","98","[35,30,21,11]","101.2"
"300","17","6","1","1","12","1","1558690919","1558690719","98","[44,17,39,18]","141.2"
