"id","id_subj","round","session","period","id_grp","grp","time","time_start","duration","links","payoff"
"1","771","1","8","1","70","1","1562595527","1562595286","244","[35,88,18,83,90,3,65,15,78]","173.4"
"2","751","1","8","1","19","1","1562595527","1562595286","244","[28,31,76,92,100]","93.4"
"3","753","1","8","1","6","1","1562595526","1562595286","244","[97,20,42,35,96,94,59,68,72,52,81,22,88,18,43,47,19,24,31,70,21,82,65]","93.4"
"4","764","1","8","1","74","1","1562595525","1562595286","244","[79,71,61,43,66,60,57,94,59,7,58,22]","253.4"
"5","787","1","8","1","63","1","1562595523","1562595286","244","[1,79,57,37,10,45,30,7,51,8,12,75,44,90,87]","253.4"
"6","789","1","8","1","11","1","1562595526","1562595286","244","[18,75,22,79,8,17,41,13,44,92,49,47]","13.4"
"7","776","1","8","1","55","1","1562595517","1562595286","244","[89,77,92]","253.4"
"8","749","1","8","1","90","1","1562595518","1562595286","244","[74,58,84,19,94,21]","253.4"
"9","796","1","8","1","97","1","1562595527","1562595286","244","[98,15,6,82,10,47,95,50,68,86,83,100]","-66.6"
"10","754","1","8","1","99","1","1562595526","1562595286","244","[75,72,97,47,37,80,62,20,28,49,19,39,1]","253.4"
"11","774","1","8","1","62","1","1562595470","1562595286","244","[32,80,84,28,85,57,50]","93.4"
"12","790","1","8","1","73","1","1562595516","1562595286","244","[98,77,93,33,87,17]","333.4"
"13","799","1","8","1","100","1","1562595529","1562595286","244","[97,15,13,72,51,50,36,41,90,12,24,47,64,19,70,4,71,75,46,45,89,26]","-306.6"
"14","767","1","8","1","1","1","1562595403","1562595286","244","[90,41,47,17,49,20,95,16,32]","93.4"
"15","756","1","8","1","20","1","1562595530","1562595286","244","[8,1,17,22,49,99,52,45,72,69,9,2,19,55,23,21,60,24,59]","93.4"
"16","775","1","8","1","66","1","1562595525","1562595286","244","[37,8,97,75,80,17,71,79,52,27,60,46,74,88]","333.4"
"17","747","1","8","1","68","1","1562595515","1562595286","244","[25,10,72,57,82,6,53,45,11,81,69,78,99,80,47,8]","13.4"
"18","758","1","8","1","80","1","1562595527","1562595286","244","[8,47,22,70,90,42,39,32,15]","333.4"
"19","798","1","8","1","61","1","1562595523","1562595286","244","[67,72,64,7,88,16,60]","253.4"
"20","768","1","8","1","58","1","1562595515","1562595286","244","[72,64,22,13,26,88,41,94,44,33,65,90,35,93]","-66.6"
"21","746","1","8","1","16","1","1562595496","1562595286","244","[49,18,8,13,22,42,33,96,24,95,40,35,20,30,80,87,72,58,61,7,1,64,32]","13.4"
"22","779","1","8","1","77","1","1562595502","1562595286","244","[75,71,73,54,36,63,46,10,18,55,23,84,44,68,52,50,14,34,51,7,57,65,33,5,91,86,83,97,42]","-466.6"
"23","763","1","8","1","28","1","1562595457","1562595286","244","[76,15,37,25,98,17,80,64,47,13,99,19,4,39,95,56,18,62,73,50,33,35]","-386.6"
"24","792","1","8","1","7","1","1562595528","1562595286","244","[42,1,37,96,46,66,38,61,67,88,94,72,22,64,60]","253.4"
"25","778","1","8","1","42","1","1562595530","1562595286","244","[90,15,99,56,94,43,65,21,29,68,96,11,19,70,31,2,82,71,57,91,9,77,100,28,39,32,18,62,81,25]","173.4"
"26","773","1","8","1","41","1","1562595530","1562595286","244","[8,100,75,58,19,76,64,94,93,1,35,9,98,4,56,11,25,7,12,88,59,54,40,50,95,80,26,16,89]","-946.6"
"27","765","1","8","1","43","1","1562595530","1562595286","244","[100,74,14,40,53,60,72,35,48,84,87,96]","93.4"
"28","772","1","8","1","29","1","1562595523","1562595286","244","[24,11,36,9,79,5,88,62,81,33,93,69]","173.4"
"29","785","1","8","1","50","1","1562595525","1562595286","244","[1,8,48,100,17,75,97,21,24,53,90,19,88,89,11,77,3,10,73,25,43,35,26,42,36,28,55,87,78,83,98,70,85,2,23,41,74,76,62,65,46,49,34,69]","-1506.6"
"30","739","1","8","1","76","1","1562595526","1562595286","244","[80,19,78,33,41,60,54,61,8,30,12,2,49,25,15,99,64,40,26,96,50,36]","-146.6"
"31","708","1","8","1","86","1","1562595518","1562595286","244","[71,98,31,24,82,65,10,67,46,44]","93.4"
"32","723","1","8","1","40","1","1562595529","1562595286","244","[27,59,5,41]","333.4"
"33","738","1","8","1","46","1","1562595525","1562595286","244","[26,86,50]","253.4"
"34","766","1","8","1","35","1","1562595529","1562595286","244","[74,72,42,20,100,22,13,87,90,41,6,21,70,62,89,96,28,32,59,60,33,81,50,92,79,10,48,36,56]","-786.6"
"35","701","1","8","1","52","1","1562595510","1562595286","244","[8,23,72,29,47,87,60,26]","581.7"
"36","741","1","8","1","94","1","1562595529","1562595286","244","[90,80,74,100,22,24,17,28,42]","173.4"
"37","715","1","8","1","32","1","1562595520","1562595286","244","[72,8,37,96,24,59,62,30,76,80,99,56,20,40,95,25,35,28]","-146.6"
"38","783","1","8","1","79","1","1562595529","1562595286","244","[71,88,35,36,32,30,95]","173.4"
"39","757","1","8","1","95","1","1562595527","1562595286","244","[79,97,55,44,40,10,9,11,17,28,32,96,42,62,85,89,88,8,92,70,29,48,33,35,12,2,76,80,24,39,99]","-66.6"
"40","731","1","8","1","81","1","1562595522","1562595286","244","[68,92,24]","253.4"
"41","720","1","8","1","83","1","1562595517","1562595286","244","[71,24,54,98,18,75,37,79,1,9,50,57,66,6,21,32,85,23,33,27,12,43,87,69,73,63,86,51,80,13,4,19,89,81,36,70]","-466.6"
"42","712","1","8","1","25","1","1562595524","1562595286","244","[28,68,92,85,13,17,69,33,49,41,24,50,95,76,32,36]","-706.6"
"43","755","1","8","1","22","1","1562595519","1562595286","244","[34,94,66]","333.4"
"44","742","1","8","1","8","1","1562595522","1562595286","244","[22,7,41,50]","333.4"
"45","730","1","8","1","49","1","1562595527","1562595286","244","[25,48,47,15,88,32,22,20,56,90,29,19,16,96,1,36,11,5,6,3,72,63,54,12,82]","-306.6"
"46","777","1","8","1","31","1","1562595486","1562595286","244","[44,19,21,96,48]","333.4"
"47","752","1","8","1","39","1","1562595530","1562595286","244","[28,98,72,5,69,96,2,80,21,99]","173.4"
"48","733","1","8","1","72","1","1562595527","1562595286","244","[89,90,80,52,46,88,42,70,15]","251.7"
"49","721","1","8","1","69","1","1562595526","1562595286","244","[89,25,17,50,85,83]","93.4"
"50","762","1","8","1","30","1","1562595506","1562595286","244","[97,75,17,37,79,61,67,11,51,22,40,95,20,1,16,80,90,99,24,19,32,15,42,39]","173.4"
"51","786","1","8","1","56","1","1562595526","1562595286","244","[8,80,37,41,79,30,4,16,42,92,60,76,12,18,89,13,5,48,35,95,87,24,2,14,59]","-146.6"
"52","797","1","8","1","12","1","1562595530","1562595286","244","[8,18,49,75,59,97,79,90,24,32,82,56,67,16,41,64,60,48,80,45,94,87,66,61,7,38,52,72,1,34,33,40,47,17,96]","-66.6"
"53","716","1","8","1","14","1","1562595523","1562595286","244","[26,63,75,31,33,65,43,77,71,82,21,6,86,57,9]","173.4"
"54","714","1","8","1","47","1","1562595512","1562595286","244","[17,75,79,8,1,90,11,72,19,89,20]","333.4"
"55","795","1","8","1","13","1","1562595506","1562595286","244","[72,25,74,37,100,58,80,28,24,59,52,14,11,60,33,65,10,36,35,83,31,96,42,69,87]","-626.6"
"56","729","1","8","1","92","1","1562595519","1562595286","244","[46,63,75,71,25,72,36,96,19,20,24,44,18,82,88,4,65,42,11,10,94,5,31,51,7,67,66,26,32,79,95,55,45,17,48,35,89,13,100,73,81,23,56,83,28]","-786.6"
"57","726","1","8","1","51","1","1562595529","1562595286","244","[32,37,69,100,57,86,27,18,63,78,23,54,44,96,20,99,80,47,31,64,52,67,22,75,88,74]","173.4"
"58","745","1","8","1","78","1","1562595528","1562595286","244","[71,83,79,36,54]","333.4"
"59","707","1","8","1","10","1","1562595519","1562595286","244","[68,5,13,42,50,97,44,77,81,35,2,34,21,74]","-66.6"
"60","724","1","8","1","3","1","1562595522","1562595286","244","[45,91,88,79,63,60,89,50,71,46,97]","93.4"
"61","732","1","8","1","27","1","1562595514","1562595286","244","[38,83]","333.4"
"62","793","1","8","1","96","1","1562595518","1562595286","244","[47,89,92,65,7]","253.4"
"63","760","1","8","1","71","1","1562595530","1562595286","244","[88,61,66,3,86,68,6,75,55,29,46,9,34,10,65,89,100,77]","13.4"
"64","759","1","8","1","24","1","1562595516","1562595286","244","[32,47,25,69,59,21,81,65,51,19,100,68,70,91,23,42,28,1,3,89,13,2,11,99,37,73]","-66.6"
"65","794","1","8","1","33","1","1562595529","1562595286","244","[37,25,24,42,18,58,23,52,28,14,85,44,84,94,10,6,74,88,43,27,89,60,13,48,2,5,93,35,59,34,76,53]","-466.6"
"66","784","1","8","1","53","1","1562595450","1562595286","244","[75,85,50,68,5,7,46,31,93,42,43,60]","13.4"
"67","770","1","8","1","91","1","1562595530","1562595286","244","[36,3,9,89,77]","93.4"
"68","744","1","8","1","9","1","1562595529","1562595286","244","[83,91,44,41,97,29,38,27,71]","-66.6"
"69","782","1","8","1","34","1","1562595520","1562595286","244","[90,84,38,47,89,99,40,22,7,43,59,16,77,50,33,12]","-146.6"
"70","748","1","8","1","75","1","1562595522","1562595286","244","[44,4,93,72,88]","333.4"
"71","800","1","8","1","26","1","1562595523","1562595286","244","[76,64,79,84,58,47,50,44,67,74,72,7,33,92,46,52,45,36,65,60,34,53,87]","-306.6"
"72","788","1","8","1","85","1","1562595526","1562595286","244","[81,74,25,44,47,62,33,17,53,83,50,42,70,60,36,95,40]","-226.6"
"73","750","1","8","1","57","1","1562595529","1562595286","244","[80,16,7,12,30,8,88,43,59,47,91,77,63,42]","253.4"
"74","761","1","8","1","67","1","1562595519","1562595286","244","[17,84,26,96,71,79,29,44,45,53]","253.4"
"75","780","1","8","1","44","1","1562595528","1562595286","244","[47,75,86,9,88]","173.4"
"76","725","1","8","1","93","1","1562595523","1562595286","244","[12,71,4,41,75,43,29,10,53,2,60,58,52,31,88,87]","93.4"
"77","743","1","8","1","98","1","1562595530","1562595286","244","[73,32,18,37,7,10,50,41,36,96,69,59,34,97,81,92,70,100,83,65,55,24,13,62,58]","-146.6"
"78","710","1","8","1","45","1","1562595522","1562595286","244","[97,79,24,67,26,52,61,7,68,12,3,88,46,75]","93.4"
"79","709","1","8","1","89","1","1562595529","1562595286","244","[24,100,48,99,22,55,64,17,68,52,42,90,85,34,20,79,66,61,74,50,10,73,57,75,5,7,2,12,67,46,60,70,83,69,3,36,91,35,96,41]","-626.6"
"80","740","1","8","1","38","1","1562595520","1562595286","244","[27,31,34,93,7,83,11,58,15,68,9,12,88]","13.4"
"81","737","1","8","1","15","1","1562595524","1562595286","244","[43,55,99,44,90,49,70,31,85]","333.4"
"82","706","1","8","1","82","1","1562595526","1562595286","244","[86,97,60]","253.4"
"83","713","1","8","1","36","1","1562595529","1562595286","244","[18,81,68,91,86,75,71,49,37,17,92,83,94,79,25,64,50,65,100,98,78,77,3,45,33,85,42,89,13,23,26,53,29,2,74,35,59,76,58,67,90,7]","-1186.6"
"84","704","1","8","1","5","1","1562595527","1562595286","244","[37,74,47,32,88,53,30,2,29,67,10,49,92,40,42,90,23,28]","-66.6"
"85","727","1","8","1","4","1","1562595497","1562595286","244","[84,80,92,55,88,21,12,33]","333.4"
"86","705","1","8","1","84","1","1562595529","1562595286","244","[17,19,26,89,47,59,29,4,24,33,34,62,94,40,87,90,12,67,61,43,7]","-226.6"
"87","722","1","8","1","88","1","1562595530","1562595286","244","[8,86,60,31,46,74,53,27,44,43,38]","333.4"
"88","781","1","8","1","17","1","1562595522","1562595286","244","[36,37,99,25,69,74,44,52,72,85,62,70,19,95,80,18,92,30,32,39,28]","-226.6"
"89","717","1","8","1","48","1","1562595524","1562595286","244","[1,80,37,15,47,49,60,66,50,89,88,86,63,7,42,31,56,12,33,35,43]","-226.6"
"90","735","1","8","1","59","1","1562595529","1562595286","244","[15,89,44,47,99,42,17,13,32,94,70,87,35,41,2,76,16,33,4,56,96]","-66.6"
"91","734","1","8","1","23","1","1562595527","1562595286","244","[64,84,83,77,12,2,5,7,92,36,20,24]","-146.6"
"92","791","1","8","1","64","1","1562595527","1562595286","244","[41,61,16,80,82]","253.4"
"93","728","1","8","1","60","1","1562595514","1562595286","244","[24,76,82,80,8,96,21,71,75,29,97,14,72,67,38,46,5]","333.4"
"94","719","1","8","1","65","1","1562595520","1562595286","244","[63,36,72,44,73,17,86,14,98,70,4,82,13,6,92,60,58]","-226.6"
"95","769","1","8","1","54","1","1562595523","1562595286","244","[55,68,78,44,51]","333.4"
"96","711","1","8","1","21","1","1562595510","1562595286","244","[80,83,22,39,33,50,6]","173.4"
"97","702","1","8","1","37","1","1562595505","1562595286","244","[8,75,17,96,47,80,51]","333.4"
"98","718","1","8","1","2","1","1562595530","1562595286","244","[69,59,20,23,57]","253.4"
"99","703","1","8","1","87","1","1562595529","1562595286","244","[74,37,40,99,90,44,84,20,52,50,49,32,63,1,16,19,13,17,77]","13.4"
"100","736","1","8","1","18","1","1562595518","1562595286","244","[37,64,32,55,100,72,54,69,89,98,11,56]","253.4"
"101","776","2","8","1","37","1","1562596285","1562595980","244","[27,80]","322.5"
"102","783","2","8","1","38","1","1562596292","1562595980","244","[76,17,2,24]","246.2"
"103","742","2","8","1","90","1","1562596289","1562595980","244","[33,79,49]","322.5"
"104","774","2","8","1","22","1","1562596264","1562595980","244","[3,14,13]","322.5"
"105","785","2","8","1","52","1","1562596287","1562595980","244","[1,8,41,96,84,99,25,43,64,61,46,85,3,79,73,30,29,87,49,74,81]","322.5"
"106","752","2","8","1","20","1","1562596287","1562595980","244","[48,44,2,23]","242.5"
"107","787","2","8","1","18","1","1562596238","1562595980","244","[32,87,14,15]","322.5"
"108","755","2","8","1","24","1","1562596235","1562595980","244","[97,98]","322.5"
"109","713","2","8","1","39","1","1562596285","1562595980","244","[98,43]","322.5"
"110","789","2","8","1","86","1","1562596282","1562595980","244","[39,23,49,79,27]","242.5"
"111","721","2","8","1","40","1","1562596285","1562595980","244","[48,49,79,78]","322.5"
"112","775","2","8","1","13","1","1562596291","1562595980","244","[1,100,85,76,71,15,96,32,41,84,22,18,8]","322.5"
"113","760","2","8","1","35","1","1562596291","1562595980","244","[76,82,71,85,24,34,31,15]","162.6"
"114","745","2","8","1","88","1","1562596291","1562595980","244","[51,21,48,93]","242.5"
"115","720","2","8","1","8","1","1562596289","1562595980","244","[76,38,13]","322.5"
"116","711","2","8","1","36","1","1562596141","1562595980","244","[48,97,84,79,54,73,85]","242.5"
"117","709","2","8","1","19","1","1562596292","1562595980","244","[90,58,28,2,6,81,70,83,77,56,59,72,53,88,33]","2.5"
"118","741","2","8","1","72","1","1562596292","1562595980","244","[40,49,79,30,19]","242.5"
"119","738","2","8","1","74","1","1562596288","1562595980","244","[48,67,16,78,6]","242.5"
"120","730","2","8","1","1","1","1562596228","1562595980","244","[72,67,79]","322.5"
"121","732","2","8","1","28","1","1562596292","1562595980","244","[38,94,19,76,8,53,66,56]","162.6"
"122","727","2","8","1","59","1","1562596292","1562595980","244","[73,50,93,32,58,56,38,19]","242.6"
"123","717","2","8","1","4","1","1562596252","1562595980","244","[22,11,78,56,87,76,8,57,38,28,83]","162.6"
"124","740","2","8","1","63","1","1562596283","1562595980","244","[81,71,31,26]","168.4"
"125","733","2","8","1","64","1","1562596288","1562595980","244","[55,15,67,77,85,14,6]","242.6"
"126","714","2","8","1","3","1","1562596292","1562595980","244","[97,85,63,20,90,71,18,25,29,79,54,14]","246.2"
"127","715","2","8","1","33","1","1562596292","1562595980","244","[8,17,24,9,70,60,1,67,58,80,87,49,93,75,59,81,5,19,21,73,40,72,29,64,100,27]","162.6"
"128","737","2","8","1","80","1","1562596289","1562595980","244","[48,37,3,54,7]","322.5"
"129","726","2","8","1","98","1","1562596288","1562595980","244","[86,39,64,1,20,2,24,46,93,75,18]","242.5"
"130","701","2","8","1","12","1","1562596291","1562595980","244","[62,2,6,98,93,45,23,61,87]","82.5"
"131","702","2","8","1","68","1","1562596292","1562595980","244","[97,40,48,70,36,33,90,53,61,79,80,63,67,30]","242.5"
"132","716","2","8","1","46","1","1562596273","1562595980","244","[97,2,20,82]","322.5"
"133","718","2","8","1","94","1","1562596283","1562595980","244","[83,76,28,25,53]","162.6"
"134","719","2","8","1","27","1","1562596291","1562595980","244","[72,37,64,15,25,55,42,86,61,65,99,50,52,9,92,31,71,44,47,98,24]","2.5"
"135","722","2","8","1","83","1","1562596287","1562595980","244","[50,58,88,21,94,28,11]","322.5"
"136","703","2","8","1","84","1","1562596242","1562595980","244","[8,96,41,72,99,54,15]","322.5"
"137","743","2","8","1","76","1","1562596215","1562595980","244","[8,97,37,85,95,83,4,57,38,94,77,92,68,28]","325.4"
"138","723","2","8","1","73","1","1562596292","1562595980","244","[49]","247.1"
"139","724","2","8","1","10","1","1562596275","1562595980","244","[8,97,76,32,49,46,31,9,43,29,62,82,34,68,52,35,79,87]","484.2"
"140","710","2","8","1","47","1","1562596285","1562595980","244","[93,43,98,41]","322.5"
"141","784","2","8","1","45","1","1562596252","1562595980","244","[90,65,43,12,25,15,9,6,30]","242.6"
"142","734","2","8","1","99","1","1562596281","1562595980","244","[71,48,69,50,27,62]","82.5"
"143","754","2","8","1","55","1","1562596292","1562595980","244","[24,90,8,97,71,61,50,72,34,18,96]","246.2"
"144","728","2","8","1","41","1","1562596291","1562595980","244","[24,55,37,96,31,63,72,21,39,47,93,83,53,8,64]","322.5"
"145","782","2","8","1","16","1","1562596281","1562595980","244","[17,7,46,31,74,98,41,77,15,87,30]","82.5"
"146","746","2","8","1","48","1","1562596289","1562595980","244","[72,1,8,66,41,60,25,57,51,75,76,99,77,65,35,91,13]","322.5"
"147","725","2","8","1","7","1","1562596265","1562595980","244","[77,41,30,48,87,2,16,33,18]","322.5"
"148","761","2","8","1","75","1","1562596290","1562595980","244","[28,6,93,61]","322.5"
"149","794","2","8","1","43","1","1562596292","1562595980","244","[75,1,8,71,6,19,85,90,50,24,76,61,55,59,15,12,3,86,10,9,14,93,16,39,22,23,20,97,26,31,74,64,7,82,87,18,36,35]","2.5"
"150","749","2","8","1","62","1","1562596289","1562595980","244","[46,26,25,50,33,7,75,57,82,65,30,41,49,71]","322.5"
"151","786","2","8","1","25","1","1562596274","1562595980","244","[8,2,40,94,54,45,84,39,7,91,9]","242.5"
"152","748","2","8","1","56","1","1562596263","1562595980","244","[64,50,40,36,100,59,70,28,4,19,17,65,46,32]","82.5"
"153","731","2","8","1","30","1","1562596266","1562595980","244","[98,24,43,59,35,16,82,87,80,91,56,86,9,45,31,61,14,68,7,67]","2.5"
"154","757","2","8","1","50","1","1562596288","1562595980","244","[8,37,1,99,41,46,42,24,72,84,64,52,63,26]","322.5"
"155","778","2","8","1","23","1","1562596290","1562595980","244","[37,76,36,44,12,20,2,15,97,47,43]","2.5"
"156","766","2","8","1","79","1","1562596288","1562595980","244","[36,71,75,84,35,18,98,42,63,81,65,2,48,50,73,28,82,96,27,64,87,49,61,100,53,14,59,56,4,30,58,78,52,10,85,86,21,69,33,95,5,34,43,1,16,93,76,8,31,46,97,68,72,54,90,91,12,62]","-557.4"
"157","750","2","8","1","91","1","1562596286","1562595980","244","[99,96,84,82,35,8,41,20,98,24,93,53,92]","322.5"
"158","779","2","8","1","66","1","1562596288","1562595980","244","[69,6,48,29,49]","322.5"
"159","773","2","8","1","49","1","1562596288","1562595980","244","[21,81,33,79,29,5,10,86,100,95,73,40,65,69,62,72,52,90,70,48,96,23]","-313.5"
"160","770","2","8","1","89","1","1562596236","1562595980","244","[60,78]","322.5"
"161","790","2","8","1","21","1","1562596286","1562595980","244","[43,49,88,98,95,83,9,53,8,55,46]","242.5"
"162","799","2","8","1","92","1","1562596289","1562595980","244","[5,27,61,33,21,46,59,84,34,11,13,75,71,78,98,51,48,93,91,22,77,57,6,20,9]","242.5"
"163","764","2","8","1","29","1","1562596292","1562595980","244","[43,74,10,49,81]","322.5"
"164","777","2","8","1","26","1","1562596291","1562595980","244","[52,41,55,34,61,48,42]","322.5"
"165","797","2","8","1","61","1","1562596275","1562595980","244","[8,26,97,1,24,50,90,41,40,25,73,30,64,100,9]","322.5"
"166","780","2","8","1","17","1","1562596255","1562595980","244","[83,78,77]","322.5"
"167","798","2","8","1","77","1","1562596291","1562595980","244","[57,83,17,73,88,90,51,28,14]","242.5"
"168","763","2","8","1","44","1","1562596261","1562595980","244","[20,23,42]","242.6"
"169","769","2","8","1","71","1","1562596288","1562595980","244","[66,48,72,99,31,50,62,42,27]","162.6"
"170","771","2","8","1","97","1","1562596290","1562595980","244","[46,24,32,4,98,43]","242.5"
"171","753","2","8","1","42","1","1562596289","1562595980","244","[59,19,62,24,27,60,84,26,56,50,44,89,90,52,34,39,75,23,18,7,45,97,71]","2.5"
"172","758","2","8","1","87","1","1562596280","1562595980","244","[57,97,79,20,71,95,72,12,15,6,16]","242.5"
"173","767","2","8","1","93","1","1562596229","1562595980","244","[17,58,74,88,9,57,83,76,38,8,22,47,75,12,98]","82.5"
"174","756","2","8","1","2","1","1562596292","1562595980","244","[76,36,32,26,20,6,22,89,46,93,23,97,47]","242.5"
"175","796","2","8","1","82","1","1562596268","1562595980","244","[8,97,90,30,84,5,80,35,50]","322.5"
"176","751","2","8","1","60","1","1562596269","1562595980","244","[89,14,6]","242.6"
"177","792","2","8","1","57","1","1562596267","1562595980","244","[85,97,40,61,55,73,95,38,51,77,58]","322.5"
"178","772","2","8","1","81","1","1562596289","1562595980","244","[54,53,49,84,74,51,57]","242.5"
"179","788","2","8","1","67","1","1562596286","1562595980","244","[15,76,80,63,8,48,88,56,92,62,55,66,68,53,73,33,59,1,64,79,52,5,54,32]","162.6"
"180","781","2","8","1","31","1","1562596135","1562595980","244","[15,84,10,14,2,63,18,65,55]","412.5"
"181","759","2","8","1","51","1","1562596186","1562595980","244","[96,88,83,57,17]","322.5"
"182","762","2","8","1","14","1","1562596290","1562595980","244","[85,18,97,33,88,8,3,70,51,76,60,32,15,13,6,75,83,57,11,21,17,58,93,77,16,64,7,56,74,89,61,22]","245.4"
"183","800","2","8","1","96","1","1562596197","1562595980","244","[1,40,84,41,99,55,71]","565.4"
"184","747","2","8","1","78","1","1562596288","1562595980","244","[75,84,57,90,58,8,96,46,83,12,29,95,4,92,5,71,39,6,53,73,40,56,74,89,2,20,17,21,64]","-157.5"
"185","708","2","8","1","85","1","1562596285","1562595980","244","[48,36,43,35,50,41,76]","162.6"
"186","768","2","8","1","70","1","1562596241","1562595980","244","[100,98,78,19,14]","242.5"
"187","706","2","8","1","53","1","1562596290","1562595980","244","[75,81,55,2,91,38,24]","322.5"
"188","765","2","8","1","15","1","1562596291","1562595980","244","[18,16,72,80,97,25,55,34,9,21,3,23,82,85,35,43]","-77.5"
"189","791","2","8","1","32","1","1562596287","1562595980","244","[90,55,74,52,48,99,28,57,92,70,75,56,11,91]","322.5"
"190","729","2","8","1","58","1","1562596290","1562595980","244","[36,46,55,43,88,29,33,84,96,20,75,91,59,22,53,5,13]","322.5"
"191","795","2","8","1","54","1","1562596258","1562595980","244","[72,15,98,25,36,48,81,19,2,62,73,29,52,35,80,79,84]","2.5"
"192","704","2","8","1","11","1","1562596265","1562595980","244","[84,13,2,4,32]","322.5"
"193","705","2","8","1","34","1","1562596287","1562595980","244","[24,90,15,42,52,35,10,50,85,9,43,97,30,79]","2.5"
"194","707","2","8","1","69","1","1562596288","1562595980","244","[80,99,66,6,58,79,32,49,96,52,10,67,21,85]","162.6"
"195","793","2","8","1","95","1","1562596288","1562595980","244","[49,78]","322.5"
"196","736","2","8","1","5","1","1562596281","1562595980","244","[66,81,78,49,100]","322.5"
"197","712","2","8","1","100","1","1562596290","1562595980","244","[63,48,80,21,49,70]","322.5"
"198","735","2","8","1","6","1","1562596283","1562595980","244","[15,22,21,11,12,41,73,60,52,71,61,85,50,98,46,64,9,74,13,88,75,93,77]","82.5"
"199","739","2","8","1","65","1","1562596279","1562595980","244","[49,9,84,50]","247.1"
"200","744","2","8","1","9","1","1562596290","1562595980","244","[34,10,68,41,15]","242.5"
"201","783","3","8","1","56","1","1562596819","1562596572","312","[11,14,10]","244.2"
"202","767","3","8","1","71","1","1562596799","1562596572","312","[80,92,13,98,68,62,81,5,93,37]","244.2"
"203","713","3","8","1","55","1","1562596816","1562596572","312","[91,52,69,84,94]","244.2"
"204","776","3","8","1","22","1","1562596819","1562596572","312","[86,45,79]","244.2"
"205","770","3","8","1","68","1","1562596812","1562596572","312","[79,92]","324.2"
"206","755","3","8","1","24","1","1562596810","1562596572","312","[61,47]","324.2"
"207","799","3","8","1","91","1","1562596811","1562596572","312","[56,55,92,25]","324.2"
"208","786","3","8","1","82","1","1562596812","1562596572","312","[8,69,74,81,25,3,73]","324.2"
"209","729","3","8","1","89","1","1562596814","1562596572","312","[98,83,37,61,72,82,74,49,53,81,16]","324.2"
"210","721","3","8","1","32","1","1562596808","1562596572","312","[30,29,92]","324.2"
"211","727","3","8","1","3","1","1562596806","1562596572","312","[13,80,83]","324.2"
"212","703","3","8","1","34","1","1562596813","1562596572","312","[61,37,20,38,63]","324.2"
"213","744","3","8","1","78","1","1562596815","1562596572","312","[29,96,58]","324.2"
"214","794","3","8","1","42","1","1562596811","1562596572","312","[1,49,59,97,19,40,47,65,28,60,21,75,9,18,29,96,69,17,46,100,34,38,15,13,50,2]","4.2"
"215","766","3","8","1","92","1","1562596806","1562596572","312","[71,36,73,25,98,31,15,44,18,63,30,80,75,17,61,79,38,34,67,70,82,91,1,77,68,53,26,40,19,20,24,90,95,32,87]","-555.8"
"216","785","3","8","1","40","1","1562596815","1562596572","312","[84,32,9,92,21,20,26]","324.2"
"217","736","3","8","1","84","1","1562596804","1562596572","312","[83,53,30]","247.1"
"218","719","3","8","1","66","1","1562596794","1562596572","312","[35,76,9,63,53,71,83,69,51,85]","164.2"
"219","737","3","8","1","50","1","1562596819","1562596572","312","[76,15,18,100,61,53,13,30]","244.2"
"220","725","3","8","1","86","1","1562596803","1562596572","312","[22,93,100,60,31,72]","244.2"
"221","715","3","8","1","19","1","1562596815","1562596572","312","[49,75,47,40,21,15,78,18,65,42,11,99,56,38,10]","164.2"
"222","788","3","8","1","20","1","1562596816","1562596572","312","[19,31,46,57,33,34,41,61,37,10,4,30,54,82,5,21,100]","-155.8"
"223","753","3","8","1","73","1","1562596819","1562596572","312","[63,24,82,98,49,87,34,70,16,97,100,39,59]","164.2"
"224","742","3","8","1","45","1","1562596804","1562596572","312","[79,22]","324.2"
"225","714","3","8","1","17","1","1562596807","1562596572","312","[8,19,82,75,49,9,92,98,38,67,95]","244.2"
"226","730","3","8","1","43","1","1562596781","1562596572","312","[53,30,12,83]","244.2"
"227","789","3","8","1","76","1","1562596815","1562596572","312","[88,39,69,79,93,45,92,50,59,10,62]","244.2"
"228","768","3","8","1","90","1","1562596780","1562596572","312","[48,75,4,89,61,92]","244.2"
"229","739","3","8","1","72","1","1562596801","1562596572","312","[57,33,43,48,69,86,92]","244.2"
"230","771","3","8","1","96","1","1562596799","1562596572","312","[80,78,39,32,75,17,16,58,52]","244.2"
"231","750","3","8","1","7","1","1562596757","1562596572","312","[52,4,35]","324.2"
"232","763","3","8","1","2","1","1562596750","1562596572","312","[27,74,100]","807.2"
"233","798","3","8","1","36","1","1562596809","1562596572","312","[27,93,59,10,50,34]","168.9"
"234","760","3","8","1","30","1","1562596819","1562596572","312","[84,76,64,24,98,37,32,61,53,57,4,70,79,43,95,63,1,48,12,14,91,54,86,6,59,92,20,66,51,75,21,50,3,85,67]","-152.1"
"235","734","3","8","1","94","1","1562596801","1562596572","312","[16,96,55]","324.2"
"236","769","3","8","1","4","1","1562596816","1562596572","312","[74,53,37,7,79,43,89,16,70,23,51,6,24,35,66,83,91,77,95,90,72,86]","84.2"
"237","726","3","8","1","18","1","1562596816","1562596572","312","[9,39,47,17,38,15,21,31,74,19,3]","244.2"
"238","701","3","8","1","54","1","1562596818","1562596572","312","[61,92,55,30,20]","324.2"
"239","724","3","8","1","14","1","1562596775","1562596572","312","[8,49,100,56,80,97,59,30,41,62]","84.2"
"240","764","3","8","1","13","1","1562596819","1562596572","312","[19,69,72,15,50,37,84,52,100]","244.2"
"241","757","3","8","1","9","1","1562596818","1562596572","312","[98,97,38,80,37,47,79,6,23,65,75,48,94,100,19,42,28,26,12,21]","164.2"
"242","780","3","8","1","87","1","1562596789","1562596572","312","[69,15,73]","324.2"
"243","782","3","8","1","26","1","1562596817","1562596572","312","[17,100,40,56,39,58,19,9,42,52,25]","84.2"
"244","772","3","8","1","12","1","1562596819","1562596572","312","[67,15,46,75,8,95,69,43]","244.2"
"245","752","3","8","1","38","1","1562596806","1562596572","312","[17,31,80,74,34]","244.2"
"246","761","3","8","1","15","1","1562596818","1562596572","312","[97,40,17,19,42,25]","244.2"
"247","784","3","8","1","28","1","1562596800","1562596572","312","[42,65]","324.2"
"248","716","3","8","1","97","1","1562596819","1562596572","312","[59,10,98]","324.2"
"249","702","3","8","1","67","1","1562596801","1562596572","312","[8,37,30,100,92,12]","244.2"
"250","738","3","8","1","70","1","1562596784","1562596572","312","[4,61]","324.2"
"251","733","3","8","1","57","1","1562596809","1562596572","312","[97,8,75,19,47,29,4,43,46,63,72]","244.2"
"252","708","3","8","1","80","1","1562596704","1562596572","312","[15,98,31,18,3,49,40,11,74]","244.2"
"253","705","3","8","1","49","1","1562596815","1562596572","312","[8,40,9,73,14,98]","324.2"
"254","745","3","8","1","6","1","1562596806","1562596572","312","[96,23,4]","324.2"
"255","731","3","8","1","5","1","1562596808","1562596572","312","[37,88,48,69,49,82,44,6,96,64,100,65,54,71,4,20,47,59,98,43]","487.9"
"256","773","3","8","1","52","1","1562596806","1562596572","312","[100,48,8,1,24,6,13,29,55,94,35,69,88,39,96,33,23,7,14,74,63,41,4,66,46,32,60,30,62,10,16,26,98,9]","-315.8"
"257","711","3","8","1","1","1","1562596816","1562596572","312","[58,9,16,75,52,65]","244.2"
"258","735","3","8","1","83","1","1562596819","1562596572","312","[75,71,15,3,76,43,98,88,86,23,66,24]","244.2"
"259","775","3","8","1","58","1","1562596819","1562596572","312","[40,33,1,75,8]","324.2"
"260","732","3","8","1","59","1","1562596815","1562596572","312","[97,41,62,84,32,2]","244.2"
"261","717","3","8","1","51","1","1562596816","1562596572","312","[99,86,23,66,94,61,88,78]","244.2"
"262","741","3","8","1","47","1","1562596803","1562596572","312","[56,24,92,21,10,18,39]","324.2"
"263","758","3","8","1","33","1","1562596810","1562596572","312","[98,15,84,64,80,70,27,69,92,52,20]","324.2"
"264","712","3","8","1","16","1","1562596806","1562596572","312","[38,8,82,29,88,93,3,52,96,94]","164.2"
"265","720","3","8","1","99","1","1562596813","1562596572","312","[60,42,94,29,70]","324.2"
"266","722","3","8","1","39","1","1562596809","1562596572","312","[1,75,18,19,100,67,21,80,74,11,56]","324.2"
"267","749","3","8","1","21","1","1562596818","1562596572","312","[84,32,65,9,67,54,56,38,14,92,72,48,17,29,58,8,42]","244.2"
"268","778","3","8","1","62","1","1562596800","1562596572","312","[64,15,98,32,59,39,72,76,14]","244.2"
"269","718","3","8","1","46","1","1562596819","1562596572","312","[61,10,12,57,21,5,69,52,20,75]","4.2"
"270","748","3","8","1","48","1","1562596814","1562596572","312","[90,75,91,56,64,24,72,45,83,68,86]","324.2"
"271","747","3","8","1","61","1","1562596782","1562596572","312","[64,80,24,19,29,93,70,47,38,63,77,96,69,97,62]","487.9"
"272","709","3","8","1","23","1","1562596814","1562596572","312","[6,51,92]","324.2"
"273","710","3","8","1","11","1","1562596815","1562596572","312","[56,80,26,91,19,92,9,21,39,33,10,69,30]","84.2"
"274","756","3","8","1","75","1","1562596818","1562596572","312","[8,94,100,78,15,87,69,46,57]","244.2"
"275","754","3","8","1","10","1","1562596818","1562596572","312","[96,99,56,97,11]","244.2"
"276","723","3","8","1","98","1","1562596783","1562596572","312","[30,92,95]","324.2"
"277","800","3","8","1","64","1","1562596818","1562596572","312","[1,21,67,9,61,12]","247.1"
"278","707","3","8","1","79","1","1562596810","1562596572","312","[80,95,93,94,23,22,45,30,92,33,21,68,61,57,4]","247.9"
"279","706","3","8","1","44","1","1562596786","1562596572","312","[83,99,69,88,92,8,5,94,41]","324.2"
"280","774","3","8","1","35","1","1562596786","1562596572","312","[83,52,91,74,66]","324.2"
"281","728","3","8","1","100","1","1562596800","1562596572","312","[79,58,40,31,56,61,76,48,81,29,88,69,20,37,26,34,92,2,13,49,62,10]","164.2"
"282","790","3","8","1","41","1","1562596815","1562596572","312","[59,84,76,29,14]","324.2"
"283","751","3","8","1","85","1","1562596818","1562596572","312","[53,66,92]","324.2"
"284","797","3","8","1","95","1","1562596812","1562596572","312","[8,17,61,74,91,30]","324.2"
"285","740","3","8","1","31","1","1562596814","1562596572","312","[20,94,81,84]","324.2"
"286","781","3","8","1","27","1","1562596714","1562596572","312","[15,36,2,57]","413.9"
"287","777","3","8","1","77","1","1562596794","1562596572","312","[61,92]","324.2"
"288","765","3","8","1","69","1","1562596816","1562596572","312","[8,48,49,40,80,75,47,39,87,10,46,96]","244.2"
"289","704","3","8","1","74","1","1562596816","1562596572","312","[17,2,80,38]","244.2"
"290","759","3","8","1","88","1","1562596815","1562596572","312","[60,16,79,53,51,67,23,76]","244.2"
"291","743","3","8","1","81","1","1562596777","1562596572","312","[18,82,44,31,10,88,71,67,56,17,63,89,41,49]","84.2"
"292","791","3","8","1","60","1","1562596817","1562596572","312","[99,79,25,86]","244.2"
"293","787","3","8","1","25","1","1562596789","1562596572","312","[10,88,47,60,84,74,26,15]","244.2"
"294","746","3","8","1","53","1","1562596819","1562596572","312","[63,89,34,69,86,62,94,99,85]","324.2"
"295","779","3","8","1","37","1","1562596818","1562596572","312","[93,5,31]","247.1"
"296","762","3","8","1","65","1","1562596812","1562596572","312","[1,8,21,75,63,97,79,99,28,9,29,100,42]","4.2"
"297","796","3","8","1","93","1","1562596812","1562596572","312","[1,8,79,48,81,39,23,69,73,62,63,41]","247.1"
"298","793","3","8","1","63","1","1562596798","1562596572","312","[95,73,81]","324.2"
"299","792","3","8","1","29","1","1562596799","1562596572","312","[60,8,19,40,28,96,9,78,75,99]","324.2"
"300","795","3","8","1","8","1","1562596630","1562596572","312","[42,58,65]","324.2"
"302","713","4","8","1","61","1","1562597380","1562597104","247","[75,1,26,74,66,12,76,38,36]","300.4"
"301","733","4","8","1","67","1","1562597443","1562597104","247","[97,85,80,79,93,22,57,64,38,29,81,44,9]","300.4"
"304","715","4","8","1","44","1","1562597447","1562597104","247","[80,71,100,84,34,54,67,81,86,73,45,95,87,55,70,24,31]","300.4"
"303","755","4","8","1","83","1","1562597447","1562597104","247","[15]","235.5"
"305","798","4","8","1","8","1","1562597445","1562597104","247","[43,17,72,29,92,97,47,84]","300.4"
"306","703","4","8","1","42","1","1562597421","1562597104","247","[1,9,8,23,11,54,74,92,56]","300.4"
"307","766","4","8","1","74","1","1562597448","1562597104","247","[25,73,10,18,15,37,57,1,89,80,91,11,84,32,63,65,49,92,13,9,95,27,69,98,23,31,35,66,3]","-259.6"
"308","739","4","8","1","27","1","1562597439","1562597104","247","[96,98,88,29,80,28,47]","236.6"
"309","714","4","8","1","49","1","1562597441","1562597104","247","[1,10,43,38,37,67,44,6,25,2,63,88]","371.6"
"310","774","4","8","1","79","1","1562597414","1562597104","247","[38,46,84,29,41,33]","300.4"
"311","768","4","8","1","65","1","1562597419","1562597104","247","[9,74,75,95,36]","220.4"
"312","756","4","8","1","29","1","1562597448","1562597104","247","[23,1,88,69,79,13,55,41]","140.4"
"313","770","4","8","1","52","1","1562597369","1562597104","247","[20,91]","204.2"
"314","712","4","8","1","84","1","1562597447","1562597104","247","[17,19,8,82,61,11,1,18]","300.4"
"315","705","4","8","1","19","1","1562597436","1562597104","247","[75,52,34,88,97,33,98,74]","236"
"316","737","4","8","1","21","1","1562597447","1562597104","247","[53,67,44,84,100,70,57]","160.5"
"317","786","4","8","1","54","1","1562597447","1562597104","247","[73,45,35,27,82]","220.4"
"318","738","4","8","1","99","1","1562597421","1562597104","247","[9,26]","300.4"
"319","711","4","8","1","11","1","1562597407","1562597104","247","[9,26,56,84,42]","220.4"
"320","789","4","8","1","43","1","1562597438","1562597104","247","[57,94,62,9,8,49]","220.4"
"321","719","4","8","1","47","1","1562597444","1562597104","247","[18,10,44,49,14,16,4,72,56,85,61,92,39,97,29,3,79,84,27,20]","1163.9"
"322","750","4","8","1","66","1","1562597447","1562597104","247","[13,31,3]","300.4"
"323","724","4","8","1","5","1","1562597353","1562597104","247","[2,70,9,74,67,92]","300.4"
"324","730","4","8","1","77","1","1562597443","1562597104","247","[45,22,71,17,55,13,32,23,34]","300.4"
"325","732","4","8","1","97","1","1562597427","1562597104","247","[96,28,29,6,47,12]","300.4"
"326","776","4","8","1","76","1","1562597418","1562597104","247","[17,58,50]","300.4"
"327","717","4","8","1","80","1","1562597445","1562597104","247","[33,14,94,6,77,8,16,85,38]","220.4"
"328","710","4","8","1","33","1","1562597446","1562597104","247","[17,96,37,29,91,95,10,94,63,79,59,73,85,98]","60.4"
"329","780","4","8","1","35","1","1562597447","1562597104","247","[71,54]","300.4"
"330","709","4","8","1","71","1","1562597430","1562597104","247","[74,12,35,91]","300.4"
"331","775","4","8","1","6","1","1562597441","1562597104","247","[100,20,42,43,34,38,4,85]","300.4"
"332","729","4","8","1","56","1","1562597443","1562597104","247","[76,48,50,62,6,57,72,4,85,79,70,64,94,45,34,54,30,100,81,82]","1285.4"
"333","778","4","8","1","82","1","1562597447","1562597104","247","[71,74,28,1,11,87,76,93,57,55,67,75,24,13,17,90]","300.4"
"334","797","4","8","1","72","1","1562597428","1562597104","247","[44,47,74,20]","740.2"
"335","736","4","8","1","94","1","1562597404","1562597104","247","[4,15]","235.5"
"336","748","4","8","1","15","1","1562597448","1562597104","247","[11,85,16,25,94,14,69,10,83]","761.2"
"337","725","4","8","1","20","1","1562597441","1562597104","247","[76,72,52,99,97]","438.2"
"338","716","4","8","1","12","1","1562597447","1562597104","247","[71,97,26]","220.4"
"339","782","4","8","1","60","1","1562597440","1562597104","247","[53,44]","234.6"
"340","767","4","8","1","3","1","1562597290","1562597104","247","[33,20,96,17,79,51,43,94,36,97,6,98,61,41]","234.6"
"341","702","4","8","1","46","1","1562597437","1562597104","247","[74,75,92,67,37,96,42,68,89]","300.4"
"342","796","4","8","1","85","1","1562597446","1562597104","247","[48,1,100,38,42,4,72,3,80,94,61,82,6,51,39]","220.4"
"343","783","4","8","1","18","1","1562597447","1562597104","247","[9,51,74,23,14,20]","300.4"
"344","799","4","8","1","31","1","1562597421","1562597104","247","[79,92,93,86,66,81]","300.4"
"345","735","4","8","1","57","1","1562597447","1562597104","247","[15,84,72,24,93,1,28,97,100,44,21,86,56,68]","80.5"
"346","800","4","8","1","4","1","1562597399","1562597104","247","[1,10,5,14,6,72,47]","300.4"
"347","752","4","8","1","91","1","1562597430","1562597104","247","[56,84,1,22,75,19,52,26]","87.9"
"348","727","4","8","1","68","1","1562597444","1562597104","247","[28,55,66,86,43,56,96,47,46,54,34]","140.4"
"349","744","4","8","1","7","1","1562597438","1562597104","247","[49,14,16,26,85]","300.4"
"350","747","4","8","1","75","1","1562597435","1562597104","247","[15,44,94,93,64,34,16,32,22,4,29,20,72,97,90]","300.4"
"351","757","4","8","1","2","1","1562597442","1562597104","247","[79,32,18,59,27,49,5,43]","220.4"
"352","745","4","8","1","51","1","1562597348","1562597104","247","[28,39]","300.4"
"353","741","4","8","1","69","1","1562597442","1562597104","247","[72,75,51,37,96,57,9,47]","300.4"
"354","721","4","8","1","32","1","1562597433","1562597104","247","[9,77,95]","300.4"
"355","726","4","8","1","30","1","1562597446","1562597104","247","[48,50,78,76,86,96,56]","60.4"
"356","720","4","8","1","26","1","1562597440","1562597104","247","[1,94,99,12,74,7,27]","220.4"
"357","723","4","8","1","93","1","1562597401","1562597104","247","[9,36,74]","300.4"
"358","784","4","8","1","78","1","1562597395","1562597104","247","[96,48,30]","220.4"
"359","754","4","8","1","37","1","1562597447","1562597104","247","[84,1,78,91,19,34,52,96,61,43,15,58,48,71,69]","300.4"
"360","731","4","8","1","70","1","1562597448","1562597104","247","[17,71,96,40,95,87,56,55,42,2]","237.1"
"361","763","4","8","1","25","1","1562597442","1562597104","247","[74,15,49]","220.4"
"362","722","4","8","1","41","1","1562597446","1562597104","247","[75,3,66,9,80,29]","531.6"
"363","707","4","8","1","88","1","1562597431","1562597104","247","[18,33,49,28,74]","234.6"
"364","718","4","8","1","73","1","1562597446","1562597104","247","[87,54,9,74,33,44,70,55]","-99.6"
"365","781","4","8","1","16","1","1562597447","1562597104","247","[98,80,47,10,55,4,25,7]","220.4"
"366","772","4","8","1","95","1","1562597429","1562597104","247","[71,92,87,68,38]","300.4"
"367","785","4","8","1","63","1","1562597447","1562597104","247","[9,49]","300.4"
"368","704","4","8","1","17","1","1562597447","1562597104","247","[80,79,36,43,18,74,7,10,9]","300.4"
"369","769","4","8","1","98","1","1562597431","1562597104","247","[63,75,71,19,32,34,1,45,43,17,36,33,61,62,84,81,40,77,55,93,74]","911.4"
"370","734","4","8","1","62","1","1562597443","1562597104","247","[39,81,85]","161.7"
"371","749","4","8","1","34","1","1562597427","1562597104","247","[84,2,10,18,43,32,93,22,77,86,82,68,27]","220.4"
"372","706","4","8","1","23","1","1562597446","1562597104","247","[75,38,57,78,80,74,70,29]","300.4"
"373","773","4","8","1","9","1","1562597427","1562597104","247","[8,18,64,16,48,2,7,91,6,44,11,29,54,65,82,42,5,73,23,10,30,93,61,67,43,47,17,94,34,92,63,41,32,22,55,99,74,33,69,20,83,66,50,24]","-748.4"
"374","794","4","8","1","38","1","1562597434","1562597104","247","[100,8,17,80,42,34,61,18,95,32,22,39,98,70,31,10,51,64,29,81]","140.4"
"375","742","4","8","1","45","1","1562597412","1562597104","247","[54,56]","300.4"
"376","743","4","8","1","28","1","1562597446","1562597104","247","[8,38,79,56,100,51,29,72,59,43,14,1,80,47,7]","220.4"
"377","787","4","8","1","89","1","1562597432","1562597104","247","[94,95,96,53,90,57,46,74]","220.4"
"378","701","4","8","1","22","1","1562597330","1562597104","247","[2,53,9,74]","234.6"
"379","708","4","8","1","1","1","1562597384","1562597104","247","[72,64,80,28,38,56,6,85]","220.4"
"380","740","4","8","1","64","1","1562597432","1562597104","247","[75,45,1,91]","300.4"
"381","762","4","8","1","50","1","1562597437","1562597104","247","[17,80,38,15,76,48,30,84]","300.4"
"382","753","4","8","1","53","1","1562597447","1562597104","247","[84,56,38,60,44,54,24,89]","531.6"
"383","764","4","8","1","58","1","1562597437","1562597104","247","[76,69,48,37,52]","300.4"
"384","788","4","8","1","36","1","1562597447","1562597104","247","[15,72,28,51,62,93,17,92,38,27,43,70,61,11,66,24,25,29,75,18,60,52,54,40,65,10,55]","-19.6"
"385","761","4","8","1","40","1","1562597440","1562597104","247","[28,61,74,98,36]","300.4"
"386","728","4","8","1","92","1","1562597447","1562597104","247","[80,85,76,96,91,75,98,74,9,56,81,4,21]","300.4"
"387","779","4","8","1","39","1","1562597432","1562597104","247","[64,82,51,38]","300.4"
"388","765","4","8","1","10","1","1562597445","1562597104","247","[8,43,28,97,94,69,14,64,62,90,75,36,44,33,77]","220.4"
"389","791","4","8","1","87","1","1562597439","1562597104","247","[62,73,95]","300.4"
"390","746","4","8","1","13","1","1562597447","1562597104","247","[92,26,75,62,20,34,2,97,85,84,29,33,38,66,70,22,54,42,82]","220.4"
"391","777","4","8","1","59","1","1562597448","1562597104","247","[33,28,2]","220.4"
"392","758","4","8","1","86","1","1562597446","1562597104","247","[16,15,19,66,37,78,82,90,34,31,71,30,68]","140.4"
"393","790","4","8","1","48","1","1562597432","1562597104","247","[78,30]","300.4"
"394","751","4","8","1","96","1","1562597435","1562597104","247","[75,68,78]","300.4"
"395","759","4","8","1","100","1","1562597407","1562597104","247","[98,96,56,67,37,92,21,57]","80.5"
"396","760","4","8","1","24","1","1562597448","1562597104","247","[34,26,27,77,67,55,53]","300.4"
"397","771","4","8","1","55","1","1562597435","1562597104","247","[22,95,75,67,24,45,9,73]","220.4"
"398","795","4","8","1","90","1","1562597447","1562597104","247","[75,21,82,44,57,10]","220.4"
"399","793","4","8","1","81","1","1562597430","1562597104","247","[62,57,10,98]","395.2"
"400","792","4","8","1","14","1","1562597448","1562597104","247","[17,15,47]","300.4"
"401","733","5","8","1","35","1","1562597861","1562597623","344","[70,79,30,50,31,88,16,39,92,58,36,28]","303.4"
"402","731","5","8","1","89","1","1562597862","1562597623","344","[78,87,9,50,92,69,60]","143.4"
"403","739","5","8","1","43","1","1562597863","1562597623","344","[6,49,71,91,56]","303.4"
"404","713","5","8","1","70","1","1562597847","1562597623","344","[76,98,53,23,24,15,10]","303.4"
"405","786","5","8","1","69","1","1562597852","1562597623","344","[12,40,45,5,13,89]","303.4"
"406","789","5","8","1","50","1","1562597863","1562597623","344","[82,18,11]","303.4"
"407","784","5","8","1","82","1","1562597862","1562597623","344","[18,50,14,68,52]","374.9"
"408","721","5","8","1","51","1","1562597862","1562597623","344","[72]","234.9"
"409","776","5","8","1","7","1","1562597858","1562597623","344","[11,82,91]","303.4"
"410","709","5","8","1","46","1","1562597847","1562597623","344","[52,99,48,11,76,78]","223.4"
"411","798","5","8","1","58","1","1562597851","1562597623","344","[71,50,54,12,15,47]","303.4"
"412","756","5","8","1","17","1","1562597863","1562597623","344","[80,99,97,79,92,21]","303.4"
"413","775","5","8","1","20","1","1562597860","1562597623","344","[79,40,92,97,33]","303.4"
"414","727","5","8","1","83","1","1562597859","1562597623","344","[24,97,63,53,49,29,77,93]","143.4"
"415","783","5","8","1","60","1","1562597863","1562597623","344","[76,25,95,18,62,42,20,48,89,41,77,69,33]","223.4"
"416","712","5","8","1","99","1","1562597860","1562597623","344","[1,42,87,23,58,40,18,100,55,48,41,79,25,67]","303.4"
"417","732","5","8","1","14","1","1562597849","1562597623","344","[47,71,82,68,50,92,52]","303.4"
"418","748","5","8","1","49","1","1562597854","1562597623","344","[24,18,34,10,47,11,13,90,83,69]","303.4"
"419","796","5","8","1","18","1","1562597863","1562597623","344","[1,22,76,42,82]","234.9"
"420","799","5","8","1","5","1","1562597860","1562597623","344","[41,53,99,10,87,79,11,90,69]","303.4"
"421","714","5","8","1","91","1","1562597858","1562597623","344","[100,14,15,45,89,62,16,7,38,80,43,87,63,8,11,56,6,75]","374.9"
"422","716","5","8","1","24","1","1562597859","1562597623","344","[96,83]","303.4"
"423","705","5","8","1","63","1","1562597860","1562597623","344","[48,99,77,72,98,29,70,37]","303.4"
"424","763","5","8","1","19","1","1562597860","1562597623","344","[71,7,44]","303.4"
"425","774","5","8","1","45","1","1562597860","1562597623","344","[60,15,51,91,90]","234.9"
"426","764","5","8","1","26","1","1562597863","1562597623","344","[76,68,78]","303.4"
"427","767","5","8","1","68","1","1562597808","1562597623","344","[100,26,56,18,50,14,33,82,97]","294.9"
"428","724","5","8","1","75","1","1562597808","1562597623","344","[76,66,71,37,52,47,16,11,77,67,78,13,92]","534.9"
"429","782","5","8","1","9","1","1562597863","1562597623","344","[89,37]","303.4"
"430","702","5","8","1","21","1","1562597862","1562597623","344","[17,100,34,95,57,88,52,48,73,31,62,66]","143.4"
"431","726","5","8","1","23","1","1562597863","1562597623","344","[37,70,34]","303.4"
"432","715","5","8","1","13","1","1562597863","1562597623","344","[64,80,25,90,61,99,71,14,1,76,17,92,44,95,62,26,82,50,68,37,85,84]","235.7"
"433","766","5","8","1","72","1","1562597863","1562597623","344","[84,76,71,36,24,90,16,38,70,33,23,41,35,96,10,5,2,53,39,11,51,34,37,7,62,63,28,27,4,85,3,83,15,93,61,95,86]","-25.1"
"434","741","5","8","1","84","1","1562597863","1562597623","344","[60,88,78,72]","303.4"
"435","785","5","8","1","48","1","1562597861","1562597623","344","[13,98,78,11,6,62]","235.7"
"436","757","5","8","1","15","1","1562597862","1562597623","344","[47,98,57,4]","223.4"
"437","800","5","8","1","34","1","1562597858","1562597623","344","[8,17,79,88,47,54,72,5,63,2,86,38]","143.4"
"438","736","5","8","1","94","1","1562597682","1562597623","344","[11]","234.9"
"439","737","5","8","1","81","1","1562597858","1562597623","344","[85,15,64,3,10,70,73,87,38,29,90,98]","223.4"
"440","792","5","8","1","66","1","1562597863","1562597623","344","[30,97,21]","223.4"
"441","738","5","8","1","61","1","1562597853","1562597623","344","[3,10]","234.9"
"442","729","5","8","1","11","1","1562597862","1562597623","344","[22,41,100,35,96,43,80,52,7,34,40,94,5,46,1,92,49,91,67,26,50,59]","-105.1"
"443","750","5","8","1","96","1","1562597831","1562597623","344","[47,76,87,11,24]","303.4"
"444","797","5","8","1","95","1","1562597842","1562597623","344","[63,99,34,79,45,76,60,11]","303.4"
"445","703","5","8","1","12","1","1562597858","1562597623","344","[18,33,59,47,29,41,3]","303.4"
"446","754","5","8","1","38","1","1562597855","1562597623","344","[17,79,71,73,75,7,22,12,96,58,80,51,70,72,61,85,29]","303.4"
"447","778","5","8","1","76","1","1562597860","1562597623","344","[15,57,100,41,74,78,99,66,68,17,7,11,39,46]","303.4"
"448","749","5","8","1","41","1","1562597851","1562597623","344","[100,40,95,73,53,22]","162.2"
"449","735","5","8","1","10","1","1562597862","1562597623","344","[76,53,25,22,2,88,15,41,47,64,44,11,42,93,36]","143.4"
"450","745","5","8","1","93","1","1562597862","1562597623","344","[83,87,77]","223.4"
"451","717","5","8","1","57","1","1562597859","1562597623","344","[19,42,12,3,83,54,73,1,38,47,87,15]","63.4"
"452","734","5","8","1","31","1","1562597849","1562597623","344","[21,67,74,11]","303.4"
"453","718","5","8","1","86","1","1562597863","1562597623","344","[72,64,88,34]","223.4"
"454","707","5","8","1","40","1","1562597846","1562597623","344","[52,3,25,29,88,73,37]","303.4"
"455","730","5","8","1","25","1","1562597848","1562597623","344","[32,46,10]","303.4"
"456","744","5","8","1","80","1","1562597862","1562597623","344","[10,7,35,16]","-75"
"457","790","5","8","1","6","1","1562597863","1562597623","344","[12,50,18,65,28]","303.4"
"458","768","5","8","1","2","1","1562597844","1562597623","344","[72,77,37,53,63]","993.6"
"459","704","5","8","1","92","1","1562597858","1562597623","344","[48,26,42,5,80,41,12,88,91,60,76,75,43,6,95]","234.9"
"460","779","5","8","1","74","1","1562597851","1562597623","344","[71,99,37,31]","303.4"
"461","743","5","8","1","29","1","1562597839","1562597623","344","[10,12,22,83,3,38,37]","63.4"
"462","706","5","8","1","1","1","1562597852","1562597623","344","[95,11,87,71,55,22,41]","303.4"
"463","720","5","8","1","88","1","1562597861","1562597623","344","[12,54,24,63,10,34]","303.4"
"464","719","5","8","1","77","1","1562597858","1562597623","344","[98,31,88,84,37,2,30,9,41,29,67,63,93,10,5,27,28,21,4]","-16.6"
"465","760","5","8","1","8","1","1562597855","1562597623","344","[37,35,39,11,13,65,92,76]","303.4"
"466","742","5","8","1","59","1","1562597805","1562597623","344","[11,39]","303.4"
"467","740","5","8","1","44","1","1562597860","1562597623","344","[60,42,19,37,10]","223.4"
"468","701","5","8","1","67","1","1562597823","1562597623","344","[11,37,99,98]","143.4"
"469","747","5","8","1","16","1","1562597863","1562597623","344","[55,94,20,50,51,53,52,41,80,22]","-75"
"470","710","5","8","1","79","1","1562597852","1562597623","344","[71,100,95,62,15,13]","303.4"
"471","759","5","8","1","39","1","1562597837","1562597623","344","[17,76,95,23,16,58,71,59,96,8]","223.4"
"472","780","5","8","1","85","1","1562597858","1562597623","344","[57,15,47,41,71,37,36]","303.4"
"473","711","5","8","1","32","1","1562597863","1562597623","344","[3,25,64]","223.4"
"474","762","5","8","1","97","1","1562597862","1562597623","344","[1,13,66,92,91,20,18,82,17,56,21]","223.4"
"475","722","5","8","1","30","1","1562597851","1562597623","344","[76,77,66]","303.4"
"476","758","5","8","1","27","1","1562597861","1562597623","344","[15,76,23,99,45,69,37,13,90]","303.4"
"477","723","5","8","1","90","1","1562597863","1562597623","344","[37,24,91,94,84,2,63,46,27,38,4,80,6]","303.4"
"478","725","5","8","1","73","1","1562597859","1562597623","344","[7,2,3,57,32,61]","303.4"
"479","794","5","8","1","47","1","1562597828","1562597623","344","[100,1,97,76,79,17,58,8,24,19,61,18,71,55,43,54,57,16,32,39,52,48,80,99]","223.4"
"480","772","5","8","1","56","1","1562597863","1562597623","344","[50,53,2,82,92,41,68,43,78]","223.4"
"481","773","5","8","1","3","1","1562597860","1562597623","344","[64,29,46,7,73,42,31,81,32,57,61,20,95,10,12,40,50,18,70,8,77,59,47,66,72,28,89]","54.9"
"482","787","5","8","1","55","1","1562597850","1562597623","344","[1,13,12,42,52,21]","303.4"
"483","765","5","8","1","52","1","1562597862","1562597623","344","[95,66,34,71,7,82,18,100,55,48,92,75,43]","223.4"
"484","770","5","8","1","54","1","1562597862","1562597623","344","[19,58,34]","303.4"
"485","746","5","8","1","87","1","1562597854","1562597623","344","[100,43,12,10,52,7,19,34,14,50,41,90,64,39,93,81,89]","223.4"
"486","791","5","8","1","65","1","1562597859","1562597623","344","[63,69,6,38,60,95,8,52]","303.4"
"487","781","5","8","1","98","1","1562597855","1562597623","344","[15,83,35,87,27,36,21,67,9,90,70,37,81]","63.4"
"488","777","5","8","1","42","1","1562597853","1562597623","344","[52,99,57]","303.4"
"489","753","5","8","1","62","1","1562597860","1562597623","344","[36,53,48,11,15,21,74,56,60,92,13,79,91]","604.7"
"490","788","5","8","1","4","1","1562597852","1562597623","344","[58,80,68,37,20,69,17,15,16,73,64,42,21,77,6,91,72,90,23]","143.4"
"491","755","5","8","1","100","1","1562597862","1562597623","344","[71,68,18]","234.9"
"492","771","5","8","1","28","1","1562597841","1562597623","344","[37,85,15,6,24,87,35,13,43,90]","223.4"
"493","728","5","8","1","37","1","1562597859","1562597623","344","[31,10,88,23,28,60,34,85,56,87,27,55,80,40,19,82,66,68,79,74,42,6,44,16,9,12,100,26,97,61,72,49,69,29,75,67,77]","-576.6"
"494","795","5","8","1","22","1","1562597855","1562597623","344","[87,88,53]","162.2"
"495","708","5","8","1","36","1","1562597851","1562597623","344","[15,98,40,85,81,87,70,80,35]","223.4"
"496","752","5","8","1","53","1","1562597858","1562597623","344","[15,98,25,64,76,36,94,58,7,40,41,12,2,63,22,34,69,17,20,14]","551.9"
"497","793","5","8","1","71","1","1562597853","1562597623","344","[48,97,24,19,22,18,47,99]","303.4"
"498","751","5","8","1","64","1","1562597862","1562597623","344","[15,86,31,32,29,10]","223.4"
"499","761","5","8","1","33","1","1562597858","1562597623","344","[13,8,92,20,78,68]","223.4"
"500","769","5","8","1","78","1","1562597862","1562597623","344","[70,8,37,46,30,11,67,87,17,39,35,74,84,56,26,91,79,44,60,33,6,43,13,92]","63.4"
"501","783","6","8","1","86","1","1562598415","1562598062","240","[95,37,12,31,100]","223.3"
"502","739","6","8","1","93","1","1562598417","1562598062","240","[25,6,8,50]","225.8"
"503","756","6","8","1","15","1","1562598404","1562598062","240","[72,56,22,80]","201.2"
"504","745","6","8","1","43","1","1562598151","1562598062","240","[45,67]","281.2"
"505","724","6","8","1","65","1","1562598406","1562598062","240","[25,55,50,47,69,8,39]","281.2"
"506","775","6","8","1","1","1","1562598415","1562598062","240","[47,7,31,79,11,6,51]","281.2"
"507","798","6","8","1","83","1","1562598413","1562598062","240","[96,39,10,25,65,52]","281.2"
"508","768","6","8","1","60","1","1562598366","1562598062","240","[76,58,96,14,50,68,82,38,34]","121.2"
"509","799","6","8","1","32","1","1562598413","1562598062","240","[34,7,45,72,90,8,57,37,95]","281.2"
"510","716","6","8","1","53","1","1562598333","1562598062","240","[47,33]","374.7"
"511","766","6","8","1","42","1","1562598409","1562598062","240","[84,76,72,98,18,25,74,90,26,81,80,24,20,99,79,13,2,78,52,33,58,57,94,28,68,12,22,29,46,64,6,54,50,8,36,55,39,45,19,5,16,75,31,48,47,59,92,44,53,69,41,27,71]","110.9"
"512","717","6","8","1","97","1","1562598418","1562598062","240","[100,79,6,27,51,91]","201.2"
"513","755","6","8","1","66","1","1562598416","1562598062","240","[30,23,24]","708.5"
"514","773","6","8","1","50","1","1562598385","1562598062","240","[36,27,60,78,47,86,63,16,54,62,65,82,48,24,29,41,93,69,31,14,39,18,4,73,57,6,38,92,15,42,26,68,34,88,12,56,7,49,23]","110.9"
"515","713","6","8","1","91","1","1562598383","1562598062","240","[35,31,71,24,75,83,67]","281.2"
"516","708","6","8","1","5","1","1562598409","1562598062","240","[76,21,22,44,94,42]","201.2"
"517","784","6","8","1","45","1","1562598383","1562598062","240","[43,4,72]","201.2"
"518","763","6","8","1","67","1","1562598405","1562598062","240","[91,43,33]","281.2"
"519","793","6","8","1","90","1","1562598405","1562598062","240","[48,100,31,7,95,1,89,23,18,82]","201.2"
"520","725","6","8","1","47","1","1562598409","1562598062","240","[53,37,54,5,10]","725"
"521","719","6","8","1","95","1","1562598403","1562598062","240","[84,74,32,19,64,8,6,14,22,100,48,33,73,93,52,24]","-38.8"
"522","702","6","8","1","98","1","1562598412","1562598062","240","[8,95,42,58]","225.8"
"523","774","6","8","1","94","1","1562598404","1562598062","240","[1,10,58,28,23,75,30,83,86,51,89,24,42,5]","281.2"
"524","731","6","8","1","57","1","1562598417","1562598062","240","[52,14,48,40,38]","-75"
"525","737","6","8","1","81","1","1562598415","1562598062","240","[52,42,93,28,12,99,38,64]","281.2"
"526","710","6","8","1","29","1","1562598409","1562598062","240","[80,33,61,28,23,25,42,36]","201.2"
"527","703","6","8","1","71","1","1562598402","1562598062","240","[8,72,2,23,1,99]","223.3"
"528","711","6","8","1","87","1","1562598418","1562598062","240","[37,4,20]","281.2"
"529","741","6","8","1","26","1","1562598416","1562598062","240","[72,50,46]","225.8"
"530","736","6","8","1","55","1","1562598260","1562598062","240","[20,42]","281.2"
"531","788","6","8","1","61","1","1562598398","1562598062","240","[7,44,77,9,72,86,54,38,84,42,29]","121.2"
"532","790","6","8","1","74","1","1562598416","1562598062","240","[60,64,18,9,95]","281.2"
"533","747","6","8","1","33","1","1562598410","1562598062","240","[90,53,7]","153.4"
"534","744","6","8","1","100","1","1562598417","1562598062","240","[97,37,86,79]","501.1"
"535","714","6","8","1","58","1","1562598418","1562598062","240","[76,74,21,31,12,13,96,68,41,5,28,26,48,24,16,42,84,77]","225.8"
"536","767","6","8","1","82","1","1562598377","1562598062","240","[100,8,37,97,62,34,78,60,19,21,90,95]","41.2"
"537","712","6","8","1","11","1","1562598413","1562598062","240","[8,49,7,71,10,24,58,85,25,31,100,51,75]","725"
"538","792","6","8","1","14","1","1562598414","1562598062","240","[20,35]","281.2"
"539","748","6","8","1","89","1","1562598416","1562598062","240","[52,56,71,31,80,41,21,62,18,23,51,90]","121.2"
"540","738","6","8","1","49","1","1562598394","1562598062","240","[34,50]","225.8"
"541","797","6","8","1","56","1","1562598397","1562598062","240","[31,8,19,7,50,71,21,15]","281.2"
"542","729","6","8","1","75","1","1562598417","1562598062","240","[59,14,5,64,55,11,90,24,26,28,85]","281.2"
"543","796","6","8","1","10","1","1562598407","1562598062","240","[82,49,34,77,9,78,5,27]","148.3"
"544","709","6","8","1","12","1","1562598400","1562598062","240","[33,30,8,42,50]","281.2"
"545","718","6","8","1","69","1","1562598417","1562598062","240","[65,50,42,99]","121.2"
"546","721","6","8","1","88","1","1562598414","1562598062","240","[31,33,50,28,57]","225.8"
"547","782","6","8","1","54","1","1562598417","1562598062","240","[61,47,34]","501.1"
"548","789","6","8","1","18","1","1562598417","1562598062","240","[85,33,10,7,65,83,90,89,76,66]","281.2"
"549","769","6","8","1","34","1","1562598418","1562598062","240","[30,6,66,97,77,83,26,28,96,54]","223.3"
"550","727","6","8","1","84","1","1562598416","1562598062","240","[24,3,28,72,21,16,92,42,77]","201.2"
"551","742","6","8","1","73","1","1562598338","1562598062","240","[50,95]","281.2"
"552","785","6","8","1","38","1","1562598417","1562598062","240","[50,60]","281.2"
"553","794","6","8","1","23","1","1562598401","1562598062","240","[100,1,8,38,17,64,51,28,48,66,76,41,11,97,75,3,25,37,63,35]","418.7"
"554","758","6","8","1","3","1","1562598418","1562598062","240","[76,16,64,37,21,78,59,28,25,98,6,72]","281.2"
"555","759","6","8","1","27","1","1562598375","1562598062","240","[8,23,34,99,10,47,75,41,86,7,64,58]","148.3"
"556","772","6","8","1","35","1","1562598389","1562598062","240","[43,18,24,75,58,22,14,99,91,53,9,25]","201.2"
"557","740","6","8","1","70","1","1562598417","1562598062","240","[30,28,16,8]","281.2"
"558","733","6","8","1","99","1","1562598413","1562598062","240","[48,23,40,3,39,63,35,69]","201.2"
"559","751","6","8","1","63","1","1562598397","1562598062","240","[71,17,96,50,99]","201.2"
"560","754","6","8","1","92","1","1562598414","1562598062","240","[68,31,40,56,76,90,86,52,72,77,55,98,44,42]","225.8"
"561","779","6","8","1","80","1","1562598328","1562598062","240","[15,23,96,42]","281.2"
"562","715","6","8","1","28","1","1562598418","1562598062","240","[8,100,75,1,79,64,51,2,6,74,7,55,32,4,98,92,43,5,77,68,70,38,60,15,93,95]","201.2"
"563","704","6","8","1","6","1","1562598414","1562598062","240","[38,77,96,83,90,98,9,76,74,41,58,97,11,42]","281.2"
"564","743","6","8","1","31","1","1562598417","1562598062","240","[80,64,8,24,77,11,23,100,75,85]","374.7"
"565","780","6","8","1","46","1","1562598418","1562598062","240","[25,41,42,9,28,77]","225.8"
"566","723","6","8","1","7","1","1562598417","1562598062","240","[86,50,100,96,24,61]","281.2"
"567","707","6","8","1","39","1","1562598415","1562598062","240","[33,28,50,42,23,95]","281.2"
"568","750","6","8","1","40","1","1562598364","1562598062","240","[57,31]","-75"
"569","746","6","8","1","52","1","1562598416","1562598062","240","[14,31,51,83,58,23,89,95,21]","201.2"
"570","778","6","8","1","21","1","1562598417","1562598062","240","[64,6,92,77,22,10,53,60,19,82,90]","281.2"
"571","786","6","8","1","13","1","1562598415","1562598062","240","[62,71,48,41,23]","223.3"
"572","800","6","8","1","24","1","1562598404","1562598062","240","[79,23,64,19,71,66,21,82,2,30]","1049.4"
"573","734","6","8","1","85","1","1562598398","1562598062","240","[57,31,27]","153.4"
"574","787","6","8","1","36","1","1562598413","1562598062","240","[28,50,42]","281.2"
"575","764","6","8","1","59","1","1562598388","1562598062","240","[3,42]","281.2"
"576","730","6","8","1","44","1","1562598415","1562598062","240","[83,24,82,28,72,17]","281.2"
"577","762","6","8","1","22","1","1562598415","1562598062","240","[8,80,79,5,85,51,10,18,77,2,9,47,15]","201.2"
"578","760","6","8","1","51","1","1562598418","1562598062","240","[8,37,85,78,16,64,79,29,6,1,27,31,100,11]","281.2"
"579","722","6","8","1","4","1","1562598414","1562598062","240","[72,6,45,87]","281.2"
"580","735","6","8","1","72","1","1562598415","1562598062","240","[76,25,28,90,6,96,91,21,16,44,5,98,66,30,19,3,45,85,43,58,55]","121.2"
"581","776","6","8","1","17","1","1562598413","1562598062","240","[77,64,34,44,93,63]","281.2"
"582","720","6","8","1","78","1","1562598418","1562598062","240","[31,44,47,34,64,10]","148.3"
"583","728","6","8","1","9","1","1562598417","1562598062","240","[91,65,72,28,61,21,48,78,96,80,22]","201.2"
"584","761","6","8","1","79","1","1562598415","1562598062","240","[17,21,75,11,23,1,29,31,97,100,85]","201.2"
"585","791","6","8","1","2","1","1562598409","1562598062","240","[41,64,90,83,70,29,86,28,24]","281.2"
"586","770","6","8","1","30","1","1562598417","1562598062","240","[19,72]","281.2"
"587","757","6","8","1","96","1","1562598416","1562598062","240","[74,21,78,44,77,9]","281.2"
"588","706","6","8","1","37","1","1562598416","1562598062","240","[96,33,31,25,17,55,32,47]","281.2"
"589","771","6","8","1","16","1","1562598418","1562598062","240","[85,5,100,18,96,33,43,84,50,30,47,53,28]","281.2"
"590","749","6","8","1","76","1","1562598403","1562598062","240","[16,21,41,8,11,13,100,29,37,23,31]","193"
"591","705","6","8","1","68","1","1562598377","1562598062","240","[60,50]","281.2"
"592","732","6","8","1","77","1","1562598407","1562598062","240","[37,79,48,86,23,84,96,78,55]","281.2"
"593","765","6","8","1","64","1","1562598401","1562598062","240","[8,77,96,1,78,14,88,74,76,68,81,6,72,27,55,99,98,92]","1006"
"594","726","6","8","1","25","1","1562598339","1562598062","240","[76,21,83,6,43,29,51]","281.2"
"595","753","6","8","1","20","1","1562598418","1562598062","240","[1,96,28,85,14,87,35,55]","201.2"
"596","777","6","8","1","41","1","1562598412","1562598062","240","[7,71,37,76,51]","83"
"597","781","6","8","1","62","1","1562598415","1562598062","240","[15,98,23,82,97,48,79,78,96,13,89,53,8,12,63,21,56,93,30,31]","501.1"
"598","752","6","8","1","8","1","1562598411","1562598062","240","[95,49,15,71,89,100,19,90,70,53]","501.1"
"599","701","6","8","1","48","1","1562598418","1562598062","240","[96,8,78,50,42]","281.2"
"600","795","6","8","1","19","1","1562598297","1562598062","240","[21,7,30,82,95,24,39]","41.2"
