"id","id_subj","round","session","period","id_grp","grp","time","time_start","duration","links","payoff"
"1","2449","1","25","1","57","1","1581507893","1581507791","118","[70,44,59,75,20,46,58,1,56]","-150.2"
"2","2489","1","25","1","60","1","1581507908","1581507791","118","[15,36,97,75,85,54,45]","-109.6"
"3","2401","1","25","1","79","1","1581507899","1581507791","118","[8,17,78,90,96]","162.5"
"4","2442","1","25","1","50","1","1581507901","1581507791","118","[72,25,5,35,16,52,13,61,7]","24"
"5","2483","1","25","1","35","1","1581507904","1581507791","118","[64,8,94,96,71,75,46,76,49,12,23,61,28,51,41,30,17,92,37,52,10,34,13,80]","-389.4"
"6","2460","1","25","1","70","1","1581507908","1581507791","118","[82,57,68,75,71]","19.3"
"7","2488","1","25","1","33","1","1581507909","1581507791","118","[76,15,89,100,5,37,42,96,68]","-40.1"
"8","2454","1","25","1","72","1","1581507906","1581507791","118","[25,51,75,80,96,39,57,60]","159.2"
"9","2468","1","25","1","47","1","1581507909","1581507791","118","[84,72,98,64,76,51,12,28,21,54,17,58,46,20]","-215.8"
"10","2422","1","25","1","62","1","1581507906","1581507791","118","[8,58,67,84,9,12,18,39,65,63,88,93,55,64]","11.2"
"11","2434","1","25","1","34","1","1581507902","1581507791","118","[90,17,35,56,20,93,89,51]","11.7"
"12","2473","1","25","1","45","1","1581507884","1581507791","118","[72,82,93,63,36,60,59,92,40,12]","-167.2"
"13","2482","1","25","1","75","1","1581507909","1581507791","118","[71,98,25,63,82,57,23,81,60,58,35,21,65,87,70,72,93,27]","19.6"
"14","2496","1","25","1","14","1","1581507905","1581507791","118","[80,40,25,93,53]","52.1"
"15","2485","1","25","1","96","1","1581507906","1581507791","118","[27,63,91]","27.6"
"16","2451","1","25","1","82","1","1581507883","1581507791","118","[97,70,57,60]","75"
"17","2461","1","25","1","85","1","1581507909","1581507791","118","[1,74,8,58,60,81]","104.8"
"18","2429","1","25","1","32","1","1581507908","1581507791","118","[100,1,52,91]","45.9"
"19","2448","1","25","1","48","1","1581507900","1581507791","118","[8,99,96,79,43,31,58]","96.5"
"20","2455","1","25","1","3","1","1581507904","1581507791","118","[12,27,30,41,13]","-30.9"
"21","2477","1","25","1","31","1","1581507908","1581507791","118","[80,68]","0"
"22","2494","1","25","1","98","1","1581507908","1581507791","118","[42,54,39,47,28,71,52,1,49]","-272.2"
"23","2435","1","25","1","77","1","1581507909","1581507791","118","[8,69,40,26,74,12,87]","-13.8"
"24","2472","1","25","1","8","1","1581507908","1581507791","118","[1,26,4,40,22,67,95,77,90,84]","-70.6"
"25","2406","1","25","1","17","1","1581507905","1581507791","118","[18,76,89,12,63,52,1,30,79,47,51,68,58,93]","55.5"
"26","2436","1","25","1","16","1","1581507898","1581507791","118","[5,51,41,20,8,90,15,22,25,54]","46"
"27","2431","1","25","1","56","1","1581507905","1581507791","118","[8,99,58,97,85,86,69,92,57]","58.1"
"28","2437","1","25","1","88","1","1581507902","1581507791","118","[37,17,55,91,78]","32"
"29","2484","1","25","1","39","1","1581507907","1581507791","118","[49,21,96,62,47,95,41,48,1,98,75,42,54,91,22,59,61,40]","-236.2"
"30","2432","1","25","1","15","1","1581507899","1581507791","118","[98,33,21,16,90,95,65,89,74,30,13]","-51"
"31","2470","1","25","1","5","1","1581507892","1581507791","118","[16,84,52,23,33,50,51,13,90,49]","-92.8"
"32","2417","1","25","1","20","1","1581507903","1581507791","118","[26,98,74,10,18,42,8,1,49,25,75,47,97,85,48,38,30,95,59,57,87,91,65,9,100,34,16,55]","-94.2"
"33","2459","1","25","1","21","1","1581507909","1581507791","118","[8,75,25,41,11,4,74]","50.1"
"34","2425","1","25","1","67","1","1581507908","1581507791","118","[8,85,62,90,95,18,88]","28.5"
"35","2486","1","25","1","53","1","1581507904","1581507791","118","[98,64,30,31,74,93,14,6,22,72,13,92,33]","65.6"
"36","2414","1","25","1","58","1","1581507906","1581507791","118","[8,48,100,97,80,75,59,85,62,30,81,38,95,56,91,84,87,2,65,43,17,12,26,90,7,57,63,47,6,55]","220.5"
"37","2474","1","25","1","55","1","1581507908","1581507791","118","[98,15,88,31,18,25,90,72,96,79,51,62,58,20,59,54,17]","14.4"
"38","2418","1","25","1","27","1","1581507907","1581507791","118","[12,93,48,55,96,63,68,23,100,41,3,4,1,87,78]","-222.7"
"39","2411","1","25","1","54","1","1581507907","1581507791","118","[72,98,80,8,59,12,79,40,94,43,60,96,31,38,47,6,68,39,74,37,49]","-399.4"
"40","2403","1","25","1","40","1","1581507905","1581507791","118","[8,1,100,80,75,59,52,54,77,42,25,45,14,67,26,22,90,28,66,7,24,11]","94.5"
"41","2495","1","25","1","24","1","1581507896","1581507791","118","[53,93,92]","169.5"
"42","2407","1","25","1","43","1","1581507904","1581507791","118","[49,100,1,97,47,85,75,71,80,48,30,81,82,91,65,18,58,59,54]","-257.1"
"43","2471","1","25","1","2","1","1581507907","1581507791","118","[12,23,36,58,76,75,52]","-56"
"44","2462","1","25","1","64","1","1581507877","1581507791","118","[44,35,23,28,13,80,47,30,62,41]","-161.2"
"45","2487","1","25","1","99","1","1581507909","1581507791","118","[83,91,21,28,18,9,31,71]","96.6"
"46","2416","1","25","1","9","1","1581507907","1581507791","118","[99]","135.7"
"47","2404","1","25","1","12","1","1581507901","1581507791","118","[76,26,37,80,72,3,28,54,55,93,27,41,17,29,2,36,61,62,35,58,74,34,30,45,47,77]","-263.6"
"48","2420","1","25","1","26","1","1581507909","1581507791","118","[100,49,1,38,85,47,43,8,21,59,82,25,58,40,14,67,69,20,77]","-37.1"
"49","2479","1","25","1","89","1","1581507908","1581507791","118","[17,8,74,93,63,44,92,15,19,53,34,33,4,46,23]","-17.2"
"50","2410","1","25","1","38","1","1581507904","1581507791","118","[58,20,52]","58.5"
"51","2465","1","25","1","59","1","1581507902","1581507791","118","[21,57,58,1,54,43,39,42,6,45,40]","-372.7"
"52","2402","1","25","1","19","1","1581507902","1581507791","118","[8,49,100,76,44,17,82,73,39,89]","72.8"
"53","2412","1","25","1","41","1","1581507906","1581507791","118","[37,46,28,80,27,47,51,17,3,64,35,29,79,2,12]","-291.1"
"54","2498","1","25","1","65","1","1581507909","1581507791","118","[100,62,77,20,58]","37.8"
"55","2478","1","25","1","6","1","1581507897","1581507791","118","[55,96,79,100,36,68,61,54,60,1,59,58,49,42]","-206.7"
"56","2439","1","25","1","28","1","1581507908","1581507791","118","[76,8,80,12,37,99,75,94,64,10,47,41,52,71,98,40,35,30,7,93,58,90,22,61]","-143.8"
"57","2446","1","25","1","71","1","1581507904","1581507791","118","[25,72,98,75,93,28,35,46,87,99,30,43,84,2,49,76,68]","-305.6"
"58","2475","1","25","1","44","1","1581507909","1581507791","118","[64,25,10,74,89,76,30,34]","1.1"
"59","2456","1","25","1","46","1","1581507898","1581507791","118","[47,76,52,1,41,68,35,71,57,30,13]","-319.6"
"60","2463","1","25","1","4","1","1581507909","1581507791","118","[38,49,97,75,82,47,25,85,27,43,21,41,78,68,29,31,92,23,93,84,6,13]","-69.4"
"61","2464","1","25","1","90","1","1581507904","1581507791","118","[99,48,84,8,42,31,14,22,67]","57.7"
"62","2423","1","25","1","10","1","1581507899","1581507791","118","[1,61,18,20,68,78,55,69,73,44,13,28,35]","36.5"
"63","2421","1","25","1","86","1","1581507903","1581507791","118","[99,72,82,38,56,87,60,78,88]","81.9"
"64","2405","1","25","1","94","1","1581507893","1581507791","118","[1,83,11,63,71]","75.5"
"65","2415","1","25","1","52","1","1581507908","1581507791","118","[48,75,40,5,17,46,85,79,28,49,19,30,98,32,65,38,50,25,13,2,69]","-70.6"
"66","2497","1","25","1","42","1","1581507907","1581507791","118","[36,74,72,8,40,63,59,43,96,49,84,6]","-97.9"
"67","2408","1","25","1","92","1","1581507904","1581507791","118","[36,35,94,89]","34.3"
"68","2440","1","25","1","80","1","1581507894","1581507791","118","[54,40,28,76,14,49]","-85.4"
"69","2413","1","25","1","49","1","1581507907","1581507791","118","[72,98,90,44,76,31,63,80,75,20,96,79,5,15,71,54,28]","-139.1"
"70","2453","1","25","1","30","1","1581507908","1581507791","118","[74,90,58,52,63,15,75,37,76,72,2,61,46,79,47,41,45,27,34,11,10]","22.5"
"71","2428","1","25","1","13","1","1581507909","1581507791","118","[3,79,46,15,4,52,16,11,78]","-53"
"72","2490","1","25","1","91","1","1581507908","1581507791","118","[8,99,96,84,97,58,100,68,43,87,20,39,18,88,32,1,42]","-160"
"73","2493","1","25","1","23","1","1581507900","1581507791","118","[64,37,75,5,48,93,2,27,8,4,35,89,87]","-232.2"
"74","2426","1","25","1","93","1","1581507906","1581507791","118","[75,83,15,71,12,76,94,24,19,17,37,73,92,63,72,89,30,27,100,23,60,36,79,45,53,4,34,7,18,62,43,39,59,48,42,96,28,14,85,58,47,38]","316.3"
"75","2466","1","25","1","11","1","1581507905","1581507791","118","[35,21,1,22,55,72,48,94,16,40,68]","129.2"
"76","2450","1","25","1","95","1","1581507899","1581507791","118","[1,8,58,15,20,67,39,61,84]","122.8"
"77","2438","1","25","1","36","1","1581507905","1581507791","118","[72,79,51,42,68,93,12,2,63,6,45,92,60,74,30]","-293.3"
"78","2447","1","25","1","25","1","1581507907","1581507791","118","[15,47,49,22,14,84,77]","72.3"
"79","2492","1","25","1","84","1","1581507905","1581507791","118","[78,46,51,1,75,47,95,5]","45.9"
"80","2476","1","25","1","69","1","1581507907","1581507791","118","[90,77,22,10,78]","31.8"
"81","2499","1","25","1","74","1","1581507909","1581507791","118","[8,44,53,30,21,49,84,80,61,31,58,59,45,17,98]","-14.9"
"82","2433","1","25","1","76","1","1581507906","1581507791","118","[46,17,28,93,35,71]","-167.6"
"83","2445","1","25","1","37","1","1581507904","1581507791","118","[23,33,28,12,41,30,93,79,54,31]","-166.6"
"84","2467","1","25","1","1","1","1581507900","1581507791","118","[72,17,76,90,59,27,91,2,22,18,40,43,20,95,32,67,57,98,39,6,54]","-210.1"
"85","2419","1","25","1","51","1","1581507907","1581507791","118","[76,17,36]","92"
"86","2500","1","25","1","63","1","1581507902","1581507791","118","[25,90,74,79,75,80,27,36,96,42,49,17,58,68,45,99]","-264.7"
"87","2481","1","25","1","61","1","1581507894","1581507791","118","[95,29]","145.7"
"88","2480","1","25","1","66","1","1581507908","1581507791","118","[60,99,97,8,40,22,43,100]","112.6"
"89","2430","1","25","1","68","1","1581507908","1581507791","118","[74,10,25,36,76,70,63,27,50,9,91,6,4,54,17,46,71]","-280.5"
"90","2458","1","25","1","100","1","1581507908","1581507791","118","[17,21,82,99,86,9,88,55]","0"
"91","2469","1","25","1","29","1","1581507889","1581507791","118","[15,17,12,72,76,30,4,27]","100.4"
"92","2409","1","25","1","83","1","1581507877","1581507791","118","[93,92,99,94,100,78]","124.4"
"93","2427","1","25","1","78","1","1581507899","1581507791","118","[27,10,69,51,88,72,83,6,63,73,61,99]","-30.9"
"94","2444","1","25","1","22","1","1581507909","1581507791","118","[1,25,8,40,18,39,67]","-13.5"
"95","2424","1","25","1","97","1","1581507904","1581507791","118","[58,78,81,60,82,86,43,20,4,22,66,57]","48.2"
"96","2452","1","25","1","73","1","1581507898","1581507791","118","[10,93,19,7,90,9]","88.3"
"97","2443","1","25","1","18","1","1581507875","1581507791","118","[99,62,1,91]","-18.4"
"98","2441","1","25","1","87","1","1581507897","1581507791","118","[71,86,68,76,8,84,58,96,50,75,20,42,91,2,27,72,44,23,77]","-69.3"
"99","2457","1","25","1","7","1","1581507907","1581507791","118","[17,66,34,92,28,29,50,5]","102.7"
"100","2491","1","25","1","81","1","1581507909","1581507791","118","[8,58,42,32,82,75,43,91,31]","32.4"
"101","2437","2","25","1","56","1","1581508692","1581508566","118","[17,10,73,94]","192.6"
"102","2421","2","25","1","59","1","1581508700","1581508566","118","[48,8,61,22,74,76,99,67,77]","147.2"
"103","2420","2","25","1","63","1","1581508699","1581508566","118","[72,76,25,98,57,74,77,18,67,62,91,82]","-149"
"104","2401","2","25","1","24","1","1581508701","1581508566","118","[47]","156.5"
"105","2403","2","25","1","3","1","1581508702","1581508566","118","[98,9,37,100]","105.2"
"106","2418","2","25","1","20","1","1581508699","1581508566","118","[72,38,91,100,10]","23.5"
"107","2440","2","25","1","42","1","1581508702","1581508566","118","[72,49,76]","99.2"
"108","2448","2","25","1","16","1","1581508701","1581508566","118","[79,47,11]","81.9"
"109","2414","2","25","1","37","1","1581508699","1581508566","118","[8,100,59,43,80,84,85,3,96,25,91,52,33,97,57,28,99,51,60,72,14,46,95,23,74,65,18]","632.7"
"110","2408","2","25","1","82","1","1581508699","1581508566","118","[12,86,52,18,25,80,63,19,57,26,76,74]","-41.5"
"111","2409","2","25","1","58","1","1581508700","1581508566","118","[91]","166.7"
"112","2431","2","25","1","55","1","1581508657","1581508566","118","[8,91,51]","100.7"
"113","2455","2","25","1","72","1","1581508700","1581508566","118","[42,31,38,20,88,28,29,63,19,94,8,40,4,14,79,93,85,18,57,37,80,62,100,15,89,91,49,81]","-151.6"
"114","2410","2","25","1","33","1","1581508700","1581508566","118","[100,37,84,18,9,59,25,67,98]","86"
"115","2441","2","25","1","90","1","1581508692","1581508566","118","[75,89,25,88,85,43,100,76,91,52,44,57,7,93,28]","-112.4"
"116","2425","2","25","1","93","1","1581508701","1581508566","118","[25,71,38,10,31,12,91,90,19,54,72,18,52]","-17.2"
"117","2411","2","25","1","32","1","1581508682","1581508566","118","[100,34,2,14,92,50,6]","-58.2"
"118","2478","2","25","1","60","1","1581508692","1581508566","118","[98,100,85,80,37]","166.4"
"119","2446","2","25","1","87","1","1581508700","1581508566","118","[71,12,36,54,10,44]","23.2"
"120","2470","2","25","1","66","1","1581508615","1581508566","118","[91,67,83,97]","70"
"121","2500","2","25","1","52","1","1581508700","1581508566","118","[36,90,37,59,57,74,82,100,78,75,27,12,17,7,35,91,60,85,93,44,55,95,51,70]","111.5"
"122","2404","2","25","1","88","1","1581508681","1581508566","118","[71,8,100,1,21,38,90,31,72,18,45,94,7,85,81,46,65,68,15]","308.4"
"123","2417","2","25","1","31","1","1581508698","1581508566","118","[8,1,38,100,17,49,84,12,88,9,93,72,91,81,68,25,51,35,85,45,57,30,61,73,14]","245"
"124","2456","2","25","1","75","1","1581508655","1581508566","118","[80,45]","141.9"
"125","2415","2","25","1","44","1","1581508701","1581508566","118","[79,87,90,70,7,5,51,2,96,52,85]","179.3"
"126","2416","2","25","1","69","1","1581508699","1581508566","118","[38,43]","118.7"
"127","2487","2","25","1","68","1","1581508701","1581508566","118","[31,70]","153.2"
"128","2432","2","25","1","70","1","1581508698","1581508566","118","[85,21,76,22,44,78,96,77,51,68]","25.4"
"129","2427","2","25","1","67","1","1581508696","1581508566","118","[48,100,79,58,57,8,63,33,89,59,21,51,26,98,96,25,18,74,19,66]","-11.3"
"130","2402","2","25","1","79","1","1581508698","1581508566","118","[67,96,62,18,74,93,59]","48.9"
"131","2491","2","25","1","19","1","1581508702","1581508566","118","[25,75,80,41,99,62,84,12,13,97,100,72,67,38,64,45,49,35,93,43,74,77,82,31,42,14,17,15,9,20]","-153.6"
"132","2406","2","25","1","38","1","1581508690","1581508566","118","[24,64,84,25,94,43,74,88,69,30,68,51,3,75]","208.7"
"133","2494","2","25","1","27","1","1581508680","1581508566","118","[12,10,18]","140.5"
"134","2407","2","25","1","71","1","1581508702","1581508566","118","[78,80,87,91,10]","177.2"
"135","2413","2","25","1","74","1","1581508695","1581508566","118","[71,8,37,48,63,99,22,41,58,80,70,67,97,33,26,82]","-25.7"
"136","2449","2","25","1","8","1","1581508702","1581508566","118","[18,41,74,37,33,43,31,72,85,9]","-33.8"
"137","2474","2","25","1","45","1","1581508702","1581508566","118","[75,48,3,49,88,64,42,31,19,81,65,40,14]","4.5"
"138","2405","2","25","1","21","1","1581508683","1581508566","118","[84,98,26,96,100]","47.9"
"139","2484","2","25","1","96","1","1581508700","1581508566","118","[48,59,44,90,78,70]","67.4"
"140","2497","2","25","1","51","1","1581508699","1581508566","118","[48,37,21,80,61,98,18,100,22,74,26,44,55,70,13,97,67]","228.7"
"141","2462","2","25","1","29","1","1581508666","1581508566","118","[72,38,98,49,47,40,11,94]","-16"
"142","2463","2","25","1","2","1","1581508702","1581508566","118","[84,62,76,24,32,25,90,22,96,21,93,44,15,89,99,69]","123.8"
"143","2423","2","25","1","92","1","1581508702","1581508566","118","[24,6,46,99,9,50,14,34,4,81,32,11,86,53,40,16]","-221"
"144","2464","2","25","1","41","1","1581508701","1581508566","118","[99,25,74,60]","133.7"
"145","2498","2","25","1","30","1","1581508699","1581508566","118","[84,99,61,71,76,19,100,31]","161.4"
"146","2479","2","25","1","97","1","1581508700","1581508566","118","[89,8,1,37,96,95,17,84,55,25]","108.8"
"147","2412","2","25","1","18","1","1581508698","1581508566","118","[17,79,74,63,91,33,60,88,47,43,12,82,85,51,25,41,22,46,72,8,76,100,67,59,93,57,49,4,15,37,52,40]","750.8"
"148","2429","2","25","1","6","1","1581508700","1581508566","118","[75,7]","146.4"
"149","2495","2","25","1","14","1","1581508701","1581508566","118","[76,16,46,45,32,98,72,37,25,92]","125"
"150","2435","2","25","1","35","1","1581508665","1581508566","118","[84,31]","161.4"
"151","2445","2","25","1","61","1","1581508674","1581508566","118","[75,71,47]","156.5"
"152","2458","2","25","1","39","1","1581508700","1581508566","118","[76,85,99,59,41,57,73,9,77,83,2]","92.9"
"153","2471","2","25","1","95","1","1581508699","1581508566","118","[75,73,91,37,42]","106.4"
"154","2453","2","25","1","85","1","1581508701","1581508566","118","[17,1,84,74,77,76,88,48,28,27,42,19,44,30,5,100,80,54,22,82,51,36,79,87]","66.4"
"155","2475","2","25","1","10","1","1581508698","1581508566","118","[25,60,36,20,71,93,28,27,13,56,7,86,47]","280.3"
"156","2436","2","25","1","15","1","1581508697","1581508566","118","[95,38,99,23,87,25,48,73,35,53,40,9,11,91,72,18,88,12,89]","-43.8"
"157","2466","2","25","1","50","1","1581508701","1581508566","118","[1,92,86,32]","3.1"
"158","2476","2","25","1","36","1","1581508700","1581508566","118","[8,15,13,28,52,64,78,77]","155.7"
"159","2457","2","25","1","57","1","1581508699","1581508566","118","[76,25,27,85,12,31,70,79,18,91,93]","46.1"
"160","2482","2","25","1","7","1","1581508700","1581508566","118","[91,9,80,85,25,74,19,96,90,52,6,60,88,42,10,38,56,44,17,36,100,93,28]","129.7"
"161","2489","2","25","1","89","1","1581508686","1581508566","118","[48,97,17,79,8,57,96,100,91,71]","108.6"
"162","2426","2","25","1","47","1","1581508700","1581508566","118","[24,45,10,1,49,13,61,77,5,20,65,22,48,73,53,100,29,26,40,69,23,16,18,59,11,75,30,98,78,94]","588"
"163","2419","2","25","1","46","1","1581508699","1581508566","118","[38,36,92,85,88,91,18,37]","82.1"
"164","2434","2","25","1","26","1","1581508670","1581508566","118","[8,21,84,82,85]","47.8"
"165","2451","2","25","1","73","1","1581508681","1581508566","118","[39,56]","69.1"
"166","2465","2","25","1","1","1","1581508697","1581508566","118","[12,88]","98.3"
"167","2490","2","25","1","34","1","1581508656","1581508566","118","[8,49,100,80,85,99,41,32,77,90,15,4,92,86,53,81,14]","-141.6"
"168","2481","2","25","1","84","1","1581508701","1581508566","118","[1,100,21,48,33,98,26]","247.3"
"169","2485","2","25","1","83","1","1581508702","1581508566","118","[66,91,39,77]","257.3"
"170","2483","2","25","1","23","1","1581508697","1581508566","118","[58,25,75,9,52,76,12,37,20,15,47]","35.9"
"171","2433","2","25","1","100","1","1581508688","1581508566","118","[78,84,37,31,67,88,47,43,19,52,20,72,18]","291.6"
"172","2439","2","25","1","62","1","1581508676","1581508566","118","[79,75,64,59,38,90,63,58,19,96,12]","-45.8"
"173","2454","2","25","1","77","1","1581508701","1581508566","118","[8,100,74,98,70,96,58,83,78]","11.5"
"174","2461","2","25","1","99","1","1581508702","1581508566","118","[37,18]","166.4"
"175","2468","2","25","1","65","1","1581508701","1581508566","118","[79,21,99,57,98,75,64,30,37,86,88]","131.1"
"176","2473","2","25","1","64","1","1581508689","1581508566","118","[12,19,18]","81.4"
"177","2442","2","25","1","12","1","1581508701","1581508566","118","[1,49,79,80,84,82,71,85,31,64,61,25,62,9,52,20,56,77,94,70,17,7,90]","-74"
"178","2499","2","25","1","43","1","1581508702","1581508566","118","[1,21,59,85,80,75,99,96,40,77,38,48,25,73,26,9,30,65,19,28,49,18,100]","-2.6"
"179","2428","2","25","1","28","1","1581508701","1581508566","118","[76,48,8,70,6,80,41,37]","101"
"180","2493","2","25","1","86","1","1581508694","1581508566","118","[21,99,5,50,51,65,10,34]","45.5"
"181","2444","2","25","1","98","1","1581508690","1581508566","118","[75,48,58,79,23,9,84]","123"
"182","2488","2","25","1","25","1","1581508702","1581508566","118","[21,8,100,80,17,78,1,61,28,85,26,77,74,33,48,94,42,67,59,20,30,64,3,72,52,62,49,22]","77.5"
"183","2486","2","25","1","40","1","1581508700","1581508566","118","[95,91,72,47,18]","42.6"
"184","2460","2","25","1","91","1","1581508699","1581508566","118","[71,83,66,78,63,57,26,55,19,98,80,90,37,31,58,89,20,7,95,85,93,18,52,72,15]","669.1"
"185","2452","2","25","1","4","1","1581508701","1581508566","118","[72,18,99,19,93,92,11,46,34,75,13]","22.1"
"186","2443","2","25","1","5","1","1581508697","1581508566","118","[44,86,47,54,43,48,3,9,28,40]","133.8"
"187","2450","2","25","1","54","1","1581508699","1581508566","118","[21,93,39,7,87,99,69,100,85,5]","9.4"
"188","2480","2","25","1","81","1","1581508698","1581508566","118","[88,31,92,34,85,45]","-13.1"
"189","2438","2","25","1","22","1","1581508695","1581508566","118","[18]","177.7"
"190","2424","2","25","1","11","1","1581508701","1581508566","118","[16,92,4,47,29]","-94.8"
"191","2422","2","25","1","49","1","1581508686","1581508566","118","[19,3,43,31,24,12,47,45,46,42,29,18,34,72]","-121.3"
"192","2430","2","25","1","94","1","1581508701","1581508566","118","[8,97,79,100,40,68,30,26,17,64,85,88]","93.7"
"193","2447","2","25","1","13","1","1581508692","1581508566","118","[47,49,4]","88.7"
"194","2459","2","25","1","17","1","1581508701","1581508566","118","[59,31,56,18,94]","194.8"
"195","2469","2","25","1","80","1","1581508698","1581508566","118","[21,100,78,74,28,18,77,37,63,72,82,12]","-96.1"
"196","2492","2","25","1","53","1","1581508702","1581508566","118","[36,47,34,92]","34.1"
"197","2472","2","25","1","76","1","1581508694","1581508566","118","[100,63,22,64,18]","101.5"
"198","2467","2","25","1","9","1","1581508699","1581508566","118","[8,100,22,85,3,5,23,76,43]","-52.4"
"199","2477","2","25","1","78","1","1581508701","1581508566","118","[74,70,77,55,83,71]","11.3"
"200","2496","2","25","1","48","1","1581508698","1581508566","118","[22,5,28,11,73,39,85]","32.4"
"201","2401","3","25","1","41","1","1581509250","1581509058","136","[17,90,9,14,6,87,96,27,65]","106.4"
"202","2410","3","25","1","96","1","1581509249","1581509058","136","[37,48,100,21,70,50,75,39,87,91,8,88,98]","35.8"
"203","2409","3","25","1","21","1","1581509250","1581509058","136","[52]","171.2"
"204","2415","3","25","1","89","1","1581509244","1581509058","136","[17,63,75,35,44,83,74,16,6,59]","11.5"
"205","2426","3","25","1","35","1","1581509250","1581509058","136","[33,83,47,73,20,39,27,54,22,66,63,86,48,87,100,18,99,75,70,95,74,29,94,76,7,37]","-29.5"
"206","2414","3","25","1","55","1","1581509251","1581509058","136","[84,61,21,92,42,16,4,56,57,46,25,5,81,47,93,78,79,53,36,58,52,8,83,91,49]","-246"
"207","2411","3","25","1","77","1","1581509246","1581509058","136","[44,95,51,45,34,13,60]","7.2"
"208","2404","3","25","1","84","1","1581509238","1581509058","136","[100,42,56,16,9,40,55,49,61,47,4,14,53,41,2,19,10,8,12]","-122.2"
"209","2487","3","25","1","15","1","1581509240","1581509058","136","[37,63,2,9]","132.7"
"210","2420","3","25","1","80","1","1581509247","1581509058","136","[73,4,50,97,90,67]","178.2"
"211","2408","3","25","1","57","1","1581509247","1581509058","136","[8,37,48,100,15,9,79,45,76,23,4,20,55,58,78,12,99,61,56,47,73]","-285.6"
"212","2455","3","25","1","1","1","1581509250","1581509058","136","[45,88,98,100,8,91,79,54,52]","76.3"
"213","2462","3","25","1","11","1","1581509247","1581509058","136","[79,90,85,52,19,74,12]","-38.8"
"214","2470","3","25","1","86","1","1581509216","1581509058","136","[37,35,85,83,73,40,64]","-9.9"
"215","2441","3","25","1","49","1","1581509245","1581509058","136","[15,90,84,35,13,52,20,6,4,83,12,43,79,8,5,1,55]","-16.4"
"216","2417","3","25","1","58","1","1581509246","1581509058","136","[100,85,56,21,99,77,53,13,82,3,27,14,83,94,46,20,87,22,69,55,80,33,75,9,57,6,96,97,79,4,26,12,88,72,81,63,45,95,64,15,31,71,67,91,60,92,76,41]","-69.9"
"217","2402","3","25","1","34","1","1581509249","1581509058","136","[72,15,85,100,65,41,83,43,37,92,51,46,77]","-68.6"
"218","2437","3","25","1","88","1","1581509245","1581509058","136","[52,8]","135.3"
"219","2431","3","25","1","3","1","1581509250","1581509058","136","[44,58,52,7,13]","60.9"
"220","2499","3","25","1","100","1","1581509238","1581509058","136","[15,98,22,46,41,20,87,27,93,94,38]","85.1"
"221","2445","3","25","1","17","1","1581509243","1581509058","136","[12,69,50,20,8]","181.5"
"222","2477","3","25","1","95","1","1581509238","1581509058","136","[48,45,72,87,62,79]","174.4"
"223","2456","3","25","1","63","1","1581509239","1581509058","136","[90,80,52,29]","104"
"224","2413","3","25","1","98","1","1581509248","1581509058","136","[8,79,72,26,75,59,99,91,21,25,76,96,32,28,22,5]","-17.2"
"225","2439","3","25","1","36","1","1581509250","1581509058","136","[61,52,39,85,42,4,73,8,43,55,93]","-217"
"226","2448","3","25","1","76","1","1581509210","1581509058","136","[83,43,70,45]","155.4"
"227","2459","3","25","1","67","1","1581509249","1581509058","136","[1,12,22,39,26,92]","67.6"
"228","2480","3","25","1","64","1","1581509250","1581509058","136","[47,51,52,29,83,77,19,40,86,24,58,14,62,31,35,63]","-97.4"
"229","2442","3","25","1","85","1","1581509249","1581509058","136","[34,95,29,44,58,21,13,11,70,6,91,86,32,14,18,41,87,100,51,24,7,30,74,27,8]","-50.7"
"230","2469","3","25","1","39","1","1581509246","1581509058","136","[8,37,36,80,43,91,45,100,98,6,96,52]","-55.9"
"231","2403","3","25","1","5","1","1581509247","1581509058","136","[100,63,50,87,88,42,8,75,18,70,51,79,27]","219.7"
"232","2406","3","25","1","52","1","1581509246","1581509058","136","[36,72,64,24,44,88,98,31,23,30,49,67,50,99,82,13,45,39,11,87,27,54,7,3,22,26,41,65,18,38,32,80,63,51,33,62,12,91,1,93,78,21,17,73,97,74,29,9,95,28,68,15]","455.2"
"233","2418","3","25","1","29","1","1581509243","1581509058","136","[72,15,63,95,44,73,14,88,64,8]","66.3"
"234","2429","3","25","1","25","1","1581509249","1581509058","136","[16,73,42]","104.4"
"235","2466","3","25","1","48","1","1581509249","1581509058","136","[53,44]","104.3"
"236","2425","3","25","1","37","1","1581509235","1581509058","136","[19,91,57,20,27,35,50,16,8]","65.6"
"237","2447","3","25","1","24","1","1581509250","1581509058","136","[52,73,42,58]","116.2"
"238","2458","3","25","1","16","1","1581509251","1581509058","136","[72,37,88,39,66,63,67,91]","77.1"
"239","2428","3","25","1","12","1","1581509251","1581509058","136","[1,18,56,37,35,14]","0"
"240","2427","3","25","1","13","1","1581509232","1581509058","136","[19,26,49,80,42,37,58,85,52,45,40,34,41,77,43,73,74,88,6,38]","25"
"241","2452","3","25","1","43","1","1581509247","1581509058","136","[72,76,8,6,15,98,20,88,14,10,49,50,41,13,36,39,79,95,82,34]","24.9"
"242","2475","3","25","1","92","1","1581509224","1581509058","136","[72,12,67,95,25,42,73,91,46,60]","116.4"
"243","2482","3","25","1","8","1","1581509251","1581509058","136","[1,96,75,85,59,79,57,77,43,71,84,50,81,93,39,98,12,69,91,54,56,4,82,73,23,22,36,5,87,99,25,80,21,29,51,88,47,32,48,41,49,17,97,46,16,68,95,45,90,70,76,37]","1002.5"
"244","2434","3","25","1","78","1","1581509249","1581509058","136","[99,98,57,79,48,93,59,73,91,81,55,21,52,1,12]","-101.9"
"245","2497","3","25","1","26","1","1581509250","1581509058","136","[72,15,88,56,69,98,5,41,99,17,80,70,90,67,92,60,62,68,89,45]","42.4"
"246","2461","3","25","1","69","1","1581509250","1581509058","136","[8,23]","112.7"
"247","2494","3","25","1","70","1","1581509216","1581509058","136","[73]","178.2"
"248","2468","3","25","1","94","1","1581509250","1581509058","136","[26,1,93,17,91,35,48,79]","113.6"
"249","2405","3","25","1","97","1","1581509235","1581509058","136","[25,68,61,54,73,52]","58"
"250","2454","3","25","1","75","1","1581509250","1581509058","136","[8,80,71,93,32,48,1,99,28,69,36,59,38]","181.5"
"251","2472","3","25","1","81","1","1581509251","1581509058","136","[37,1,8,100,75,35,91,88,42,84,55,80,93,46,4,73,61,58]","-159.8"
"252","2473","3","25","1","68","1","1581509214","1581509058","136","[35,25,74,89]","156.4"
"253","2457","3","25","1","9","1","1581509247","1581509058","136","[71,12,84,79,6,58]","5.9"
"254","2476","3","25","1","71","1","1581509244","1581509058","136","[76,91,50,45,70,18,82,20,48,66,96,8,79,52]","114.4"
"255","2446","3","25","1","22","1","1581509251","1581509058","136","[8,90,32,20,71,69,100,79,12,98,93]","84.8"
"256","2488","3","25","1","53","1","1581509112","1581509058","136","[76,80,50,58,9,61,82,48,84,59,75,66]","-20.6"
"257","2474","3","25","1","83","1","1581509246","1581509058","136","[15,31,45,4,51,70,44,29,52,47,3,24,40,34,60,89,92,14,49,53,48,39,27,98,21,12,32,26,56,17,1,55,78,93,82]","-106.7"
"258","2435","3","25","1","7","1","1581509248","1581509058","136","[44,20]","152"
"259","2479","3","25","1","20","1","1581509249","1581509058","136","[49]","165.5"
"260","2471","3","25","1","47","1","1581509251","1581509058","136","[79,8]","114.4"
"261","2432","3","25","1","66","1","1581509242","1581509058","136","[53,6]","96.8"
"262","2407","3","25","1","99","1","1581509245","1581509058","136","[45,100,8,2]","181.5"
"263","2423","3","25","1","73","1","1581509251","1581509058","136","[27,18,98,88,74,17,42,75,32,21,53,8,80,78,69,61,57,99,94,79,72,25,12,90,36,37,85,92,7,44,86,2,52,51,70,34,65,24,31,19,97,14,35,29,13,41,87,28,45,76]","786.9"
"264","2440","3","25","1","33","1","1581509217","1581509058","136","[58]","159.7"
"265","2463","3","25","1","60","1","1581509251","1581509058","136","[35,25,76,10,12,39,62,66,74,92,7,18,68,82,22,47,87,95,48,83,97,33,46,77,100,15,45,94,91,90,26]","-67.1"
"266","2419","3","25","1","54","1","1581509236","1581509058","136","[8,52]","135.3"
"267","2489","3","25","1","90","1","1581509240","1581509058","136","[71,75,15,16,91,61,12]","144.5"
"268","2416","3","25","1","87","1","1581509251","1581509058","136","[6]","157.2"
"269","2465","3","25","1","2","1","1581509241","1581509058","136","[25,87,84,45,18,7,15,91,73]","243.7"
"270","2483","3","25","1","46","1","1581509251","1581509058","136","[76,16,67,91,9,81,49,92,54,8,34]","34.4"
"271","2485","3","25","1","31","1","1581509248","1581509058","136","[52,58]","120.8"
"272","2500","3","25","1","19","1","1581509250","1581509058","136","[17,79,90,30,11,9,12,47,68,51,37,88,91,42,80,73,10,84]","-114.7"
"273","2484","3","25","1","93","1","1581509251","1581509058","136","[1,48,17,26,21,50,56,61,53,36,79]","41.3"
"274","2449","3","25","1","32","1","1581509251","1581509058","136","[1,26,73,93,22]","119"
"275","2478","3","25","1","28","1","1581509245","1581509058","136","[70,1,63,27,44,15,22,100,80,83,74]","125.4"
"276","2421","3","25","1","56","1","1581509243","1581509058","136","[79,50,100]","174.4"
"277","2412","3","25","1","4","1","1581509250","1581509058","136","[1,38,18,51,17,84,49,57,9,58,46,79,93,50,8,91,56,21,54,55,47,83,88,76,25,99,36,72,12,22,81]","-377.5"
"278","2443","3","25","1","23","1","1581509237","1581509058","136","[59,52,57,8,6,44,69,54,96]","-38.2"
"279","2453","3","25","1","91","1","1581509249","1581509058","136","[75,83,26,76,70,63,82,17,9,72,22,16,12,47,97,80,55,15]","104.6"
"280","2460","3","25","1","61","1","1581509251","1581509058","136","[76,67,82,42,36,84,63,97,12,99,90,53,98,68,81,56,5,94,73,57,93,8]","-76.5"
"281","2438","3","25","1","38","1","1581509243","1581509058","136","[52,100]","170.3"
"282","2436","3","25","1","14","1","1581509250","1581509058","136","[65,35,7,83,73,84,64]","13.5"
"283","2491","3","25","1","74","1","1581509248","1581509058","136","[76,98,24,9,72,80,88,70,31,83,89,27,68,90,7,11,16,35,33,62,54,92,15,6,13,85,52,50,48,73,14]","68.3"
"284","2495","3","25","1","30","1","1581509248","1581509058","136","[72,98,32,45,25,97,1,33,22,59,71,75,80,82,21,15,100,85,38,6,51]","32.1"
"285","2451","3","25","1","40","1","1581509236","1581509058","136","[24,84,68,13,14,51,49,77,64]","39"
"286","2444","3","25","1","82","1","1581509168","1581509058","136","[15,8,17,50,5,99,93]","181.5"
"287","2490","3","25","1","59","1","1581509227","1581509058","136","[8,6,23,53,98,78]","-59.6"
"288","2486","3","25","1","42","1","1581509236","1581509058","136","[98,76,15,88,18,36,25,63,44,45,79,67,9,92,73,37,81,54,95,72,47,84,19,11,35,13,12,91]","-119.7"
"289","2450","3","25","1","44","1","1581509240","1581509058","136","[1,100,85,40,77,22,52,34,95,65,38,7,66,48,89,3,81,23,62,42,15,37,45,39,87,27,2,80,33,28,29,14]","210.2"
"290","2481","3","25","1","18","1","1581509251","1581509058","136","[22,6,95,51,28]","99.1"
"291","2433","3","25","1","72","1","1581509243","1581509058","136","[26,6,52,73,17]","150.9"
"292","2430","3","25","1","6","1","1581509249","1581509058","136","[37,72,9,49,100,75,85,99,80,1,41,51,20,98,54,59,94,45,26,43,87,50,27,96,39,18,76,28,66,30,77,13,82,69,89,74,23,58]","92.2"
"293","2492","3","25","1","62","1","1581509186","1581509058","136","[44,74,60]","56.7"
"294","2498","3","25","1","50","1","1581509249","1581509058","136","[48,21,92,54,47,4,52,37]","77.6"
"295","2422","3","25","1","10","1","1581509211","1581509058","136","[92,84,43,91]","99"
"296","2424","3","25","1","79","1","1581509249","1581509058","136","[1,8,78,98,92,95,19,94,4,42,11,50,57,47,73,56,91,5,58,49,9,93,22,43,55,71]","191.8"
"297","2464","3","25","1","27","1","1581509173","1581509058","136","[82,5,28,26]","84.4"
"298","2496","3","25","1","45","1","1581509250","1581509058","136","[49,82,13,11,27,100,7,16,94]","161.5"
"299","2467","3","25","1","51","1","1581509243","1581509058","136","[64,97,8,47,7,30,95,41,18]","87.7"
"300","2493","3","25","1","65","1","1581509249","1581509058","136","[100,41,20,27,80,95,91,52,12,94,16,76]","139.6"
"301","2410","4","25","1","89","1","1581509827","1581509550","193","[48,10,76,42,35,68,98,95,41]","-9.2"
"302","2455","4","25","1","3","1","1581509818","1581509550","193","[76,86,60,33,45,46,69,98,17]","68.1"
"303","2466","4","25","1","82","1","1581509829","1581509550","193","[11,49,43,9,98]","72.1"
"304","2417","4","25","1","35","1","1581509827","1581509550","193","[100,1,85,86,81,52,92,50,78,59,43,77,5,13,67,60,75,41,26,27,94,15,21,9,12,6,66,44,98,72,30,2,14,83,73,11,82,36,69,97,37,99,29,93,53,89,18,45,54,71]","50"
"305","2409","4","25","1","96","1","1581509815","1581509550","193","[52,7,98,97,17,28]","217.7"
"306","2414","4","25","1","38","1","1581509827","1581509550","193","[1,8,100,69,95,98,4]","136.5"
"307","2452","4","25","1","63","1","1581509829","1581509550","193","[81,53,70,86,50,66,71,22,24,92,55,9,21,74,88]","-31.4"
"308","2487","4","25","1","11","1","1581509789","1581509550","193","[98]","211.9"
"309","2426","4","25","1","70","1","1581509826","1581509550","193","[81,86,85,1,71,60,6,13,72,67,50,41,62,4,100,52,66,73,24,43,20,27,21,45,92,97,9,54,80,91,34]","76.3"
"310","2463","4","25","1","18","1","1581509829","1581509550","193","[72,26,76,37,7,17,55,16,88,69,59,2,80,19,11,30,86,66,28,77,52,56,1,45,95,46,74,14,50,61,73,35,21,100,79,38,94,54,99,25,57,67,8,64,12,75,83,62,41,23,43,60,58,63,90,49,91,3,4,27,36,32,82,44,98]","445.3"
"311","2486","4","25","1","32","1","1581509829","1581509550","193","[72,24,75,83,36,34,29,51,23,82,62,49,84,53,37,17,98,11]","16.1"
"312","2444","4","25","1","66","1","1581509748","1581509550","193","[1,97,48,86,57,13,98]","75.1"
"313","2470","4","25","1","56","1","1581509818","1581509550","193","[69,22,18,17,23,98,24]","-67"
"314","2445","4","25","1","71","1","1581509829","1581509550","193","[76,65,46,98,13,55,49]","79.3"
"315","2458","4","25","1","84","1","1581509828","1581509550","193","[71,15,32,19,90,99,30,55,4,82]","162"
"316","2439","4","25","1","42","1","1581509788","1581509550","193","[24,29,48,89,23,82,43,73,98]","69.2"
"317","2490","4","25","1","10","1","1581509822","1581509550","193","[89,95]","103.2"
"318","2495","4","25","1","51","1","1581509827","1581509550","193","[72,36,30,19,57,73,28,98,17,70,95,31,46,81,32]","-46.6"
"319","2428","4","25","1","73","1","1581509829","1581509550","193","[8,48,1,36,46,5,83,82,80,24,90,65,10,12,15,39,94,25,79,92,6,74,66,99,59,61,91,64,88,49,72,44,7,63,81,21,16,55,22]","166.1"
"320","2493","4","25","1","29","1","1581509822","1581509550","193","[72,76,15,98,37,24,99,5,60,86,53,52,50,12,94,73,4,17,28]","139"
"321","2499","4","25","1","7","1","1581509825","1581509550","193","[33,55,65,53,82,43,88,54]","215.2"
"322","2413","4","25","1","67","1","1581509829","1581509550","193","[37,48,49,82,57,45,86,65,44,79]","37.9"
"323","2429","4","25","1","53","1","1581509815","1581509550","193","[98]","211.9"
"324","2404","4","25","1","25","1","1581509825","1581509550","193","[100,1,51,32,2,12,18,4,41,80,30,95,13]","-15.2"
"325","2401","4","25","1","44","1","1581509828","1581509550","193","[28,93,58,23,99]","98.9"
"326","2448","4","25","1","26","1","1581509829","1581509550","193","[67,60,28,62,86,70,41,36,18]","274.8"
"327","2494","4","25","1","60","1","1581509809","1581509550","193","[98]","211.9"
"328","2474","4","25","1","46","1","1581509827","1581509550","193","[15,44,60,37,24,17,64,47,7,11,82,75,34,84,29,93,5,81,40,79,27,23,18,88]","-112.7"
"329","2450","4","25","1","69","1","1581509825","1581509550","193","[100,85,1,95,73,16,56,62,12,43,65,2,86,52,67,3,39,53,13,60,50,11,66,82,15,5,30,45,4,77,40,22,98]","50.3"
"330","2434","4","25","1","24","1","1581509827","1581509550","193","[74,4,80,11,49,59,50,65,22,56,46,18]","163.5"
"331","2405","4","25","1","12","1","1581509800","1581509550","193","[84,95,98,17]","63.7"
"332","2497","4","25","1","59","1","1581509818","1581509550","193","[72,8,1,26,98,70,67,49,5,44,60,79,37,88,4,41,30,12]","68.4"
"333","2422","4","25","1","1","1","1581509795","1581509550","193","[72,25,16,58,98]","155"
"334","2469","4","25","1","4","1","1581509816","1581509550","193","[76,80,69,41]","158.5"
"335","2485","4","25","1","22","1","1581509828","1581509550","193","[63,69,56,17,34,81,87,32,71,95,94,98,23]","-46.6"
"336","2419","4","25","1","83","1","1581509814","1581509550","193","[21,50,72,66,98,84,27]","292.7"
"337","2446","4","25","1","76","1","1581509828","1581509550","193","[89,97,61,67,85,70,100,79,59,26,78,54,91,86,58,41,21,57,63,16,14,36,68]","81.8"
"338","2477","4","25","1","2","1","1581509817","1581509550","193","[72,100,1,97,59,41,67,50,86,38,32,98,90,33,15]","211.9"
"339","2471","4","25","1","6","1","1581509784","1581509550","193","[98]","211.9"
"340","2453","4","25","1","28","1","1581509828","1581509550","193","[8,92,59,6,46,62,11,65,55,53,5,96,93,67,86,91]","82.5"
"341","2432","4","25","1","47","1","1581509828","1581509550","193","[98,73,34,2,90,13,9,33,5]","133.5"
"342","2403","4","25","1","15","1","1581509826","1581509550","193","[28,94,55,67,61,85,32]","147.2"
"343","2406","4","25","1","34","1","1581509827","1581509550","193","[15,45,72,37,24,81,86,33,41,43,11,6,47,83,76,60,50,39,3,61,26,12,66,75,73,10,53,2,85,82,30,28,91,98,51,36,62,4,9,97,96,44,77,27,69,68,92,52,93,13,16,49,5]","4.5"
"344","2431","4","25","1","75","1","1581509799","1581509550","193","[84,98]","211.9"
"345","2418","4","25","1","94","1","1581509816","1581509550","193","[19,18,84,22]","106.8"
"346","2489","4","25","1","61","1","1581509759","1581509550","193","[37,17,8,1,13]","185.4"
"347","2425","4","25","1","52","1","1581509804","1581509550","193","[72,74,24,98,50]","211.9"
"348","2468","4","25","1","92","1","1581509827","1581509550","193","[1,13,72,80,73,68]","139.2"
"349","2420","4","25","1","40","1","1581509829","1581509550","193","[54,62,86,70,20,38,65,5,64,74,28,73,2,69,72,81,17,98,4]","80.3"
"350","2478","4","25","1","14","1","1581509820","1581509550","193","[23,18,27,34]","120.9"
"351","2408","4","25","1","87","1","1581509824","1581509550","193","[8,37,28,54,79,94,40,33,52,16,32,58,98,5]","211.9"
"352","2421","4","25","1","72","1","1581509828","1581509550","193","[13,49,43,94,99]","176"
"353","2443","4","25","1","48","1","1581509814","1581509550","193","[87,17,89,67,13,59,49,100,63,66,6]","-52"
"354","2500","4","25","1","80","1","1581509827","1581509550","193","[75,63,36,74,28,23,46,95,84,87,71,65,51,14,70]","233.1"
"355","2472","4","25","1","97","1","1581509820","1581509550","193","[8,1,37,81,24,13,100,61,17,45,98,66]","65.4"
"356","2411","4","25","1","20","1","1581509829","1581509550","193","[40,95,98,62]","63.3"
"357","2491","4","25","1","55","1","1581509827","1581509550","193","[76,72,8,46,37,53,51,47,81,2,74,80,54,79,71,63,82,57,100,64,18,40,13,96,99,24,94,50,23,32,61,49]","-134.4"
"358","2483","4","25","1","65","1","1581509829","1581509550","193","[55,93,14,91,100,23,7,96,73,17]","73.7"
"359","2488","4","25","1","99","1","1581509822","1581509550","193","[44,87,23,30,45,24,86,63,81,26,94,65]","33.1"
"360","2415","4","25","1","31","1","1581509820","1581509550","193","[51,46,98,35,95,55,88,34]","-10.6"
"361","2464","4","25","1","86","1","1581509829","1581509550","193","[8,91,72]","139.4"
"362","2498","4","25","1","91","1","1581509807","1581509550","193","[8,1,26,28,19,24,78,58,17,49,86]","246.2"
"363","2427","4","25","1","49","1","1581509828","1581509550","193","[80,46,75,48,19,59,78,7,44,38,95,70,58,98,18,71,67,13,84,94,100,37,32,91,64,17,79,60,6,2,5,72,55,87,24,82,27,25,21,73,51,34]","168.9"
"364","2449","4","25","1","43","1","1581509827","1581509550","193","[7,86]","123"
"365","2454","4","25","1","13","1","1581509819","1581509550","193","[8,41,98,10,1,42,25]","155"
"366","2440","4","25","1","90","1","1581509828","1581509550","193","[44,74,98,28,46,59,79]","137.5"
"367","2412","4","25","1","95","1","1581509824","1581509550","193","[84,80,49,83,69,32,40,16,73,29,35,46,17,18,10,78,22,24,51,20,5,82,12,39,1,60,42,31,11,23,2,14,89,25,88,81,13,45,74,38,98,59,70,62,3,79,93]","-217.7"
"368","2437","4","25","1","5","1","1581509784","1581509550","193","[8,74,36,98,7,4]","211.9"
"369","2423","4","25","1","98","1","1581509828","1581509550","193","[75,63,24,19,40,18,32,54,38,85,83,93,80,78,71,65,90,44,46,51,23,42,95,10,89,62,50,5,16,1,36,6,41,20,29,73,2,33,25,52,47,27,15,77,4,12,43,3,9,34,14,39,31,11,28,64,7,87,99,81,17,8,94,45,67,37,13,100,97,66,86,91,92,96,59,58,21,76,26,68,57,48,61,72,82,74,69,53,35,56,22,88,70,60,84,30,55,49,79]","3861.8"
"370","2484","4","25","1","100","1","1581509826","1581509550","193","[28,59,85,93,71,37,64,46,88,32,7,47,17,87]","185.4"
"371","2435","4","25","1","21","1","1581509828","1581509550","193","[18,63]","109.1"
"372","2456","4","25","1","41","1","1581509821","1581509550","193","[6,26]","130"
"373","2441","4","25","1","88","1","1581509817","1581509550","193","[63,87,31,24,99,17,64,86,74,94,55,18,7,46,8,28,22,95,29,98,34,65,9,81,16,59,73]","73.6"
"374","2479","4","25","1","50","1","1581509788","1581509550","193","[37]","158.4"
"375","2465","4","25","1","30","1","1581509750","1581509550","193","[98,72,4,66,24,28,34]","133.5"
"376","2416","4","25","1","62","1","1581509829","1581509550","193","[40]","155.4"
"377","2480","4","25","1","45","1","1581509790","1581509550","193","[100,99,41,30,67,98]","160.2"
"378","2481","4","25","1","54","1","1581509829","1581509550","193","[13,91,41,92,27,79,76,70]","10.7"
"379","2407","4","25","1","78","1","1581509826","1581509550","193","[92,86,66,98,61,33,62,41,80,4,70,15]","211.9"
"380","2447","4","25","1","39","1","1581509825","1581509550","193","[98,70,23]","139.9"
"381","2459","4","25","1","19","1","1581509798","1581509550","193","[45,66,6,86,98,11,13]","211.9"
"382","2473","4","25","1","85","1","1581509792","1581509550","193","[98,15]","356.5"
"383","2467","4","25","1","77","1","1581509728","1581509550","193","[46,80,24,1,69,27,4,35,73]","47.2"
"384","2457","4","25","1","8","1","1581509808","1581509550","193","[76,98,17]","139"
"385","2402","4","25","1","57","1","1581509829","1581509550","193","[81,58,72,94,87,78,71,51,84,18,14]","108.7"
"386","2442","4","25","1","27","1","1581509823","1581509550","193","[1,100,55,77,5,48,76,52,66,14,53,43,73,9,6,83,11,62,54,92,19,68]","12.6"
"387","2461","4","25","1","16","1","1581509825","1581509550","193","[18,63]","178.5"
"388","2460","4","25","1","64","1","1581509829","1581509550","193","[18,83,63,93,22,74,40,55,88,28,46,49,90,87,84,82,98,80,76,94]","-167.4"
"389","2424","4","25","1","93","1","1581509813","1581509550","193","[94,59,98,17]","139"
"390","2496","4","25","1","36","1","1581509827","1581509550","193","[100,85,99,77,16,86,26,66,45,21,62,54,27,41,4,73,81]","23.8"
"391","2451","4","25","1","74","1","1581509828","1581509550","193","[36,15,54,30,65,51,28,94,71,93,53,24]","132.3"
"392","2430","4","25","1","17","1","1581509829","1581509550","193","[26,28,18,88,23,95,80,73,47,48,59,68,85,74,11,63,84,46,65,32,54,37,42,38,56,10,49,70,96,71,81,30,13,36,41,98,29,20,40,78,51,92,57,58,91,86,66,62,100,82,43,55,99,7,50,44,94,79,16,9,75,83,93,52,90,33,22,61,60,12,89,1,3,15,8,97]","38.7"
"393","2475","4","25","1","79","1","1581509812","1581509550","193","[82,98,33,93,80,39,18,8,23,91,51,92,68,90,76,73,17]","176.8"
"394","2476","4","25","1","58","1","1581509812","1581509550","193","[59,72,30,98]","211.9"
"395","2482","4","25","1","23","1","1581509828","1581509550","193","[99,79,85,24,73,22,74,17,76,72,68,95,62,80,92,21,90,14,4,60,86,11,45,84,41,98,28,2,32,50,66,61,65,26,52,19,30,46,93,39,33,27,6,44,15,53,91,3,69,77,5,81,43,9,94,13,100,96,67,25,42,7,87,34,8,18,78,83,54,56,36,59,70,12,35,55,63,82,16,71]","9.9"
"396","2462","4","25","1","68","1","1581509804","1581509550","193","[79,10,76,89,58,41,13,83]","19"
"397","2438","4","25","1","9","1","1581509828","1581509550","193","[86,66,45,52,6,24,82,73,21,41,97,30,3,29,98]","133.5"
"398","2436","4","25","1","37","1","1581509818","1581509550","193","[76,50,86,77,28,32,49,17,45,62,35,15,73,92,98,2,24,70]","83.1"
"399","2433","4","25","1","81","1","1581509828","1581509550","193","[36,75,61,59,11,77,45,68,86,67,100,76,28,51,22]","72.4"
"400","2492","4","25","1","33","1","1581509785","1581509550","193","[98]","211.9"
"401","2492","5","25","1","61","1","1581510192","1581510049","279","[18]","180.7"
"402","2474","5","25","1","78","1","1581510231","1581510049","279","[71,98,31,15,44,10,73,43,2,46,85,90,81,100,87,12,32,29,40,3,35,64,39,18,94]","-191.2"
"403","2499","5","25","1","50","1","1581510233","1581510049","279","[70,13,72]","194.9"
"404","2462","5","25","1","10","1","1581510225","1581510049","279","[72,80,50,6,9]","120.4"
"405","2469","5","25","1","16","1","1581510232","1581510049","279","[72,74,29]","158.8"
"406","2445","5","25","1","66","1","1581510207","1581510049","279","[72]","194.9"
"407","2401","5","25","1","33","1","1581510230","1581510049","279","[59,15,48,37,24,69]","167"
"408","2409","5","25","1","24","1","1581510231","1581510049","279","[49]","186.7"
"409","2435","5","25","1","81","1","1581510226","1581510049","279","[92]","128.2"
"410","2455","5","25","1","11","1","1581510225","1581510049","279","[50,12,34,72,49]","132.4"
"411","2452","5","25","1","27","1","1581510221","1581510049","279","[72,78,36,89,100]","194.9"
"412","2448","5","25","1","99","1","1581510232","1581510049","279","[71,8,6,78,48,16,32,28,53,13]","79.2"
"413","2434","5","25","1","32","1","1581510233","1581510049","279","[37,64,33,75,98,23,62,69]","142.7"
"414","2456","5","25","1","67","1","1581510176","1581510049","279","[8,9,61]","155.7"
"415","2493","5","25","1","72","1","1581510233","1581510049","279","[71,76,63,66,9,18,98,27,36,75,74,1,96,95,26,64,79,41,3,54,80,14,53,52,4,65,21,70,68,16,20,49,10,35,69,32,19,7,48,15,31,28,84,25,24,37,91,89,11,23,39,43,50,87]","2437.8"
"416","2440","5","25","1","71","1","1581510233","1581510049","279","[72,78]","141.6"
"417","2439","5","25","1","96","1","1581510228","1581510049","279","[71,36,89,25,9,47,58,50,100,37,79,66,75,72,41,49,3,5,83,93,57,2,26,69,14,77,65,70,95,18,54,1,80,63,43,4,62,64,52,42,35,53,7,48,20,31,73,87,13,94,76]","-301.7"
"418","2405","5","25","1","88","1","1581510216","1581510049","279","[15,22,9,100,18]","123.7"
"419","2488","5","25","1","44","1","1581510231","1581510049","279","[84,51,23,30,88,15,49,28,94,13,93,1,62,5,25,97,61,99,50,89,8,47,56,60,65,41]","-30"
"420","2459","5","25","1","100","1","1581510233","1581510049","279","[71,24,89,82,46,31,43,30,60,7,8,61,67,10,21,63,80,47,6,17]","127.4"
"421","2496","5","25","1","57","1","1581510233","1581510049","279","[100,99,21,62,48,22,89,32]","158.5"
"422","2494","5","25","1","19","1","1581510209","1581510049","279","[72]","194.9"
"423","2425","5","25","1","64","1","1581510231","1581510049","279","[72,98,33,51,42,21,22,48,57,62,90]","-10.2"
"424","2429","5","25","1","93","1","1581510233","1581510049","279","[90,48,34,32,39,96]","105.9"
"425","2478","5","25","1","90","1","1581510226","1581510049","279","[20,50,78,49]","125.2"
"426","2454","5","25","1","79","1","1581510233","1581510049","279","[80,17,8,97,78,48,32,100,27,14,88,72]","117.4"
"427","2450","5","25","1","53","1","1581510233","1581510049","279","[100,85,48,8,17,80,97,82,55,16,73,34,52,43,54,39,89,28,94,18,24,20,99,42,45,47,50,81,29,25,78,38,57,5,64,33,41,68,65,87,60,40,37,31,35,86,79,61,32]","89.2"
"428","2465","5","25","1","60","1","1581510209","1581510049","279","[31,84,63,47,76]","167.9"
"429","2444","5","25","1","30","1","1581510213","1581510049","279","[15,17,80,91,46,37,8,93]","139"
"430","2482","5","25","1","86","1","1581510232","1581510049","279","[13,21,100,99,89,80,30,77,40,32,3,88,67,53,6,39,78,48,73,43,94,28,11,19,10,84,81,61,70,46,27,93,29,58,41,22,1,50,47,25,82,55,36,66,7]","31.5"
"431","2423","5","25","1","49","1","1581510233","1581510049","279","[84,76,36,15,63,100,91,98,74,96,58,64,62,55,46,22,5,8,66,80,95,16,6,72,26,33,24,70,37,51,59,56,30,88,89,44,35,53,60,14,82,10,79,3,43,20,52,2,42,23,17,18,32,69,87,86,85,77,65,68,4,9,11,28,29,78,90,92,81,71,67,21,19,27,7,54,75,50,99,97,83,45,13,1,48]","590.7"
"432","2466","5","25","1","98","1","1581510227","1581510049","279","[72,64,28,32,78]","213.1"
"433","2428","5","25","1","48","1","1581510231","1581510049","279","[8,17,100,36,49,77,19,97,73,46,21,39,90,31,94,32,55,37,34,5,66,25,75,44,74,43,68,2,88,23,52,24,27]","78.2"
"434","2447","5","25","1","23","1","1581510231","1581510049","279","[64,18,72]","128.2"
"435","2487","5","25","1","7","1","1581510216","1581510049","279","[43,72]","194.9"
"436","2410","5","25","1","55","1","1581510230","1581510049","279","[79,100,5,46,57,67,48]","81"
"437","2468","5","25","1","92","1","1581510228","1581510049","279","[99,13,16,67,19,61,11,47,100,84,81,28,88,82,87,1,97,83,34,86]","230.2"
"438","2453","5","25","1","22","1","1581510232","1581510049","279","[79,8,17,32,1,6,92]","169.5"
"439","2489","5","25","1","36","1","1581510091","1581510049","279","[79,49,96,89]","247.6"
"440","2441","5","25","1","87","1","1581510229","1581510049","279","[63,24,90,79,98,81,47,58,66,49,18,39,46,78,94,31,92,84,12,53,93,38,34,50,100,4,11,41,76,5,35,77,40,3,8,6,96,36,72]","-70.3"
"441","2422","5","25","1","70","1","1581510230","1581510049","279","[1,99,96,32]","107"
"442","2402","5","25","1","40","1","1581510224","1581510049","279","[86,57,53,79]","71.7"
"443","2457","5","25","1","8","1","1581510230","1581510049","279","[76,49]","113"
"444","2408","5","25","1","46","1","1581510191","1581510049","279","[94,17,37,18,44]","180.7"
"445","2472","5","25","1","83","1","1581510223","1581510049","279","[8,97,79,48,74,21,18,77,24,59,51,37,1,64,30,23,91,46,22,13]","-71.8"
"446","2442","5","25","1","58","1","1581510227","1581510049","279","[100,37,47,50,11,53,6,85,19,82,2,77,79,36,89,30,67,61,13,92,94,81,76]","141.2"
"447","2477","5","25","1","51","1","1581510233","1581510049","279","[8,37,48,100,59,80,64,79,62,32,6,56,54,33,22,20,97,45,44,49,73,50,1,83,39,69,4]","-292.2"
"448","2426","5","25","1","37","1","1581510228","1581510049","279","[36,72]","194.9"
"449","2480","5","25","1","43","1","1581510233","1581510049","279","[8,49,79,23,32,6,89,70,25,36,96,50]","54.6"
"450","2418","5","25","1","74","1","1581510230","1581510049","279","[15,63,79,25,60,8,49,6,75,65]","43.1"
"451","2471","5","25","1","18","1","1581510227","1581510049","279","[72,76,84,15,98,26,37,24,31,48,47,85,83,66,46,87,1,49,96,39,52,94,53,69,56,59,45,23,42,38,35,92,28,99,13,61,67,88,89,97,40,8,4,90,34,57,50,30]","390.8"
"452","2446","5","25","1","6","1","1581510214","1581510049","279","[80,38,1,32,46,7,19,82,58,93,78,77,3,81,100,47]","197.2"
"453","2458","5","25","1","47","1","1581510232","1581510049","279","[51,84,54,39,78,33,50,43,19,58,67,21,79,71,82,11,28,99,6]","55.2"
"454","2412","5","25","1","26","1","1581510233","1581510049","279","[49,5,18,75,100,62,1,83,79,46,74,36,96,92,33,24,69,80,53,72,27,64,86,98,39,66,9,14,48,17,29,41,76]","-443.4"
"455","2431","5","25","1","13","1","1581510232","1581510049","279","[18,99,22,57,83]","75.7"
"456","2438","5","25","1","85","1","1581510227","1581510049","279","[97,48,99,57,28,100]","0"
"457","2415","5","25","1","17","1","1581510200","1581510049","279","[83,51,77,69,48]","139.2"
"458","2473","5","25","1","20","1","1581510233","1581510049","279","[5,72]","137.5"
"459","2443","5","25","1","42","1","1581510229","1581510049","279","[79,8,49,80,17,32,48,21,64,73,93,12,85,57,18,65,76,53]","-44"
"460","2417","5","25","1","2","1","1581510226","1581510049","279","[100,77,96,99,80,15,43,38,22,81,69,28,78,84,89,30,6,85,82,90,48]","-5.8"
"461","2497","5","25","1","73","1","1581510226","1581510049","279","[15,32,85,42,46,80,51,59,36,79,77,57,45,41,1,6,2,100,89,88,10,96,54,75,9,95,11]","-79.2"
"462","2416","5","25","1","28","1","1581510229","1581510049","279","[4,93]","156.7"
"463","2490","5","25","1","3","1","1581510204","1581510049","279","[86,4,1,6]","47.8"
"464","2500","5","25","1","45","1","1581510224","1581510049","279","[36,17,80,100,48,32,54,6,23,33,62,56,57,18,30]","18.5"
"465","2483","5","25","1","52","1","1581510231","1581510049","279","[78,7,50,72,49,96,76,18,53,48]","-45.9"
"466","2436","5","25","1","91","1","1581510233","1581510049","279","[71,36,63,66,58,37,28,80,3,53,6,57,78,32,97,73,44,43,88,61,89,67,72,15,93,17]","194.9"
"467","2407","5","25","1","63","1","1581510231","1581510049","279","[43,67,27,80,21,19,7,99,72]","194.9"
"468","2449","5","25","1","65","1","1581510228","1581510049","279","[49]","186.7"
"469","2461","5","25","1","62","1","1581510229","1581510049","279","[51,1,76,26,5,64,69,57,39,49,96,44,45]","-293"
"470","2486","5","25","1","1","1","1581510228","1581510049","279","[72,37,25,32,17,98,84,27,70,62,74,3,66,8,77,6,100,92,80,95,22,90,59,34,83,55,73,96,50,65,18,41,60,54,49,58,2,53,24,45]","644.9"
"471","2427","5","25","1","35","1","1581510223","1581510049","279","[49,100,77,76,19,60,53,39,69,30,2,68,14,65,85,12,87,96,48,18,32,37,31,24,33,78]","-233.4"
"472","2476","5","25","1","9","1","1581510227","1581510049","279","[76,64,80,47,97,61,6,67,88,60,95,15,63,71,10,99,2,8,100,54,39,46,75,50,41,12,58,91,74,19,52,49,72,14,11,82,69,5]","162.9"
"473","2470","5","25","1","68","1","1581510226","1581510049","279","[72,69,86,4,53,49,35]","-76.6"
"474","2406","5","25","1","80","1","1581510227","1581510049","279","[72,45,48,30,22]","282.5"
"475","2467","5","25","1","94","1","1581510224","1581510049","279","[24,89,19,36,93,54,18,80,28,73,43,78,39]","46.2"
"476","2403","5","25","1","12","1","1581510231","1581510049","279","[8,42,50,7,63,46,59,81,76]","98"
"477","2430","5","25","1","15","1","1581510232","1581510049","279","[8,100,72,84,47,18]","128.2"
"478","2481","5","25","1","38","1","1581510221","1581510049","279","[57,34,22,53,78,18,100,87]","9.8"
"479","2414","5","25","1","59","1","1581510232","1581510049","279","[1,8,37,51,56,70,99,97,83]","-39"
"480","2460","5","25","1","75","1","1581510232","1581510049","279","[15,71,30,49,26,58,47,96,72,76,39,91,74,53,9,77,67,82]","-194.5"
"481","2485","5","25","1","41","1","1581510230","1581510049","279","[73,100,77,96,76,72]","3.6"
"482","2484","5","25","1","77","1","1581510231","1581510049","279","[100,63,80,61,23,53,74,79,43,49,32,44,96]","114.2"
"483","2451","5","25","1","84","1","1581510204","1581510049","279","[39,6,72]","194.9"
"484","2411","5","25","1","56","1","1581510233","1581510049","279","[85,51,59,48,42,49,45,64,95]","-47.8"
"485","2432","5","25","1","31","1","1581510230","1581510049","279","[90,72,96]","126.4"
"486","2424","5","25","1","14","1","1581510233","1581510049","279","[8,4,98,76,50,41,96,9,49,72,35,39,26,79]","-349.9"
"487","2464","5","25","1","89","1","1581510231","1581510049","279","[36,30,50]","135.9"
"488","2491","5","25","1","39","1","1581510232","1581510049","279","[76,64,74,100,79,32,80,51,62,59,46,58,77,31,87,91,94,42,7,93,83,23,8,99,14,72,18,26]","-275.4"
"489","2421","5","25","1","21","1","1581510207","1581510049","279","[79,32,2,72,74,54,61,67,28,20,85]","194.9"
"490","2433","5","25","1","69","1","1581510233","1581510049","279","[92,83,89,81,68,78,61,39,82,80,51,94,46,62,41,33,65,5,2,91,29,3,4,7,60,12,30,23,59,76,43,28,84,50,86,20,96,49,18,98,26,48,72]","-212.6"
"491","2419","5","25","1","95","1","1581510229","1581510049","279","[72,37,42,56,89,100,43,94,13,29,85]","117.7"
"492","2463","5","25","1","4","1","1581510228","1581510049","279","[72,29,50,8,99,43,14,66,64,28,3,87,80,92,20,6,11,19,30,46,51,23,68,56,97,83,84,48,38,89,15,90,31,81,88,61,82,22,18,17,36,86,62,78,40,9]","34.9"
"493","2479","5","25","1","82","1","1581510226","1581510049","279","[9]","155.7"
"494","2420","5","25","1","29","1","1581510232","1581510049","279","[83,92,80,100,95,27,22,16,5,43,81,94,84,7,60,8]","36.4"
"495","2495","5","25","1","5","1","1581510232","1581510049","279","[74,37,25,62,27,24,15,88,9,90,49,79,34,69,96,31,53,20,44,87,4,48,29,55]","-40.5"
"496","2413","5","25","1","97","1","1581510220","1581510049","279","[8,83,51,23,99]","82"
"497","2475","5","25","1","76","1","1581510226","1581510049","279","[100,85,66,72,47,49,12,7,93,40,26,62,52,65,69,28,14,41,64,16,75,8,53,58,5,32,18,60,63,39]","-13.7"
"498","2437","5","25","1","54","1","1581510223","1581510049","279","[100,96,76,72,89]","126.4"
"499","2498","5","25","1","34","1","1581510233","1581510049","279","[17,79,8,80,77,78,95,32,40,38,53]","69.7"
"500","2404","5","25","1","25","1","1581510229","1581510049","279","[98,84,66,21,92,73,43,100,72,74,79]","80.1"
"501","2433","6","25","1","36","1","1581510778","1581510472","184","[67,88,47,12,9,21,40,13,56,1,37,61,82,59,96,54,93,94,80,83,43,100,95,73,98,24,63,19,86,87,66,68,49,64,22,52,25,27,28,14,31]","212.8"
"502","2492","6","25","1","82","1","1581510631","1581510472","184","[67]","209.2"
"503","2404","6","25","1","78","1","1581510784","1581510472","184","[100,18,13,77,8,70,65,34,56,57]","114.4"
"504","2499","6","25","1","54","1","1581510783","1581510472","184","[67,79]","228.4"
"505","2494","6","25","1","43","1","1581510746","1581510472","184","[67]","209.2"
"506","2427","6","25","1","92","1","1581510783","1581510472","184","[8,37,79,97,24,100,82,29,77,48,78,13,51,89,28,53,62,70,22,44,49,40,1,73,25,27,32,2,67,38,42,57,55]","-361.8"
"507","2448","6","25","1","1","1","1581510780","1581510472","184","[22,100,40,60,49,72,94,98,12,56,48,15]","130.7"
"508","2401","6","25","1","46","1","1581510779","1581510472","184","[72,49,87,99,64,20,58,50,90,67]","209.2"
"509","2487","6","25","1","47","1","1581510717","1581510472","184","[67,84]","209.2"
"510","2445","6","25","1","61","1","1581510775","1581510472","184","[72,67]","209.2"
"511","2444","6","25","1","73","1","1581510775","1581510472","184","[100,89,99]","173"
"512","2414","6","25","1","28","1","1581510764","1581510472","184","[67,86]","209.2"
"513","2409","6","25","1","74","1","1581510735","1581510472","184","[67,60]","240.5"
"514","2434","6","25","1","57","1","1581510781","1581510472","184","[98,64,46,19,87,100,49,43,3,36,97,99,55,2,86,24,88,12,22,37,78,61,5,14,65,76,1,6,34,26,23,20,31,13,50,40,93,32,47,74,58,75,72]","61.4"
"515","2405","6","25","1","31","1","1581510778","1581510472","184","[20,44,100,78,84,26,62]","165.4"
"516","2470","6","25","1","99","1","1581510759","1581510472","184","[67,77,51,89]","70.4"
"517","2463","6","25","1","16","1","1581510774","1581510472","184","[15,72,37,25,64,84,90,69,3,55,51,57,98,93,80,97,96,99,45,83,13,17,42,12,82,27,100,22,78,49,44,60,33,34,50,35,87,67,26,6,7,56,73,41,52,29]","57"
"518","2408","6","25","1","33","1","1581510758","1581510472","184","[94,6,32,58,88]","180.2"
"519","2495","6","25","1","65","1","1581510780","1581510472","184","[15,45,69,3,44,98,36,24,10,49,26,28,80,71,40,99,12,59,22,47,33,64,2,82,68,85,81,60,56,50,18,96,100,46,20,87,37,83,74,75,72,58,4,1,76,94,19,48,84,90,43,79,93,61,52,88]","-29.6"
"520","2406","6","25","1","10","1","1581510783","1581510472","184","[67,56,41,73]","209.2"
"521","2478","6","25","1","14","1","1581510784","1581510472","184","[53,41,77,56]","158.2"
"522","2422","6","25","1","45","1","1581510784","1581510472","184","[44,76,26,88,52,65]","70.8"
"523","2437","6","25","1","40","1","1581510727","1581510472","184","[67]","209.2"
"524","2435","6","25","1","19","1","1581510781","1581510472","184","[67,77]","209.2"
"525","2438","6","25","1","71","1","1581510780","1581510472","184","[100,87,39,80,96,56,54,67,84,44,20,48,41]","351.9"
"526","2469","6","25","1","18","1","1581510781","1581510472","184","[57,67,34,47]","209.2"
"527","2465","6","25","1","90","1","1581510773","1581510472","184","[98,39,41,67,44]","209.2"
"528","2454","6","25","1","13","1","1581510781","1581510472","184","[80,97,47,33,56,87,71,82,77,1,57]","169.7"
"529","2446","6","25","1","72","1","1581510618","1581510472","184","[99,9,12,59,2,18,75,50,40]","63.9"
"530","2429","6","25","1","80","1","1581510730","1581510472","184","[67]","209.2"
"531","2476","6","25","1","77","1","1581510731","1581510472","184","[79,37,60,21,6,55,82,50,48,58,85,80,15,36,13,3,42,9,12,92,56,71,17,75,34,47,29,64,88,78,70,16,39,62,99,40,65,54,8,26,51,53,57,22,30,38,89,10,23,49,14,67]","1237.5"
"532","2475","6","25","1","23","1","1581510783","1581510472","184","[88,10,51,77]","117.4"
"533","2421","6","25","1","100","1","1581510775","1581510472","184","[67,11,66,30,43,77]","209.2"
"534","2440","6","25","1","35","1","1581510750","1581510472","184","[60,65,67]","240.5"
"535","2490","6","25","1","81","1","1581510775","1581510472","184","[90,36,24,19,29,27,69,76,44,57,51]","33.6"
"536","2457","6","25","1","87","1","1581510764","1581510472","184","[67]","209.2"
"537","2428","6","25","1","44","1","1581510784","1581510472","184","[37,1,21,49,36,33,43,4,32,96,86,14,95,41,93,73,99,53,5,42,28,6,98,22,85,57,83,80,40,68,46,11,18,58,35,23,60,39,9,12,20,77,76,24,91]","0"
"538","2417","6","25","1","27","1","1581510784","1581510472","184","[67]","209.2"
"539","2462","6","25","1","52","1","1581510739","1581510472","184","[72,15,74,11,45,32,44,46,5]","80.4"
"540","2459","6","25","1","39","1","1581510782","1581510472","184","[72,36,80,47,19,63,74,97,85,28,4,77,1,56]","185.9"
"541","2480","6","25","1","91","1","1581510776","1581510472","184","[25,89,28,21,72,84,8,32,27,41,6,81]","228"
"542","2491","6","25","1","3","1","1581510784","1581510472","184","[38,77,60,24,17,42,29,15,37,61,19,43,73,30,47,99,63,44,31,5,64,70,55,41,89,12,21,65]","-228"
"543","2443","6","25","1","48","1","1581510784","1581510472","184","[6,98,17,94]","145.2"
"544","2418","6","25","1","76","1","1581510768","1581510472","184","[34,9,36,8,88,23,69]","110.9"
"545","2481","6","25","1","15","1","1581510779","1581510472","184","[100,64,36,82,21,29,55,13,57,8,78,98,49,66,1,91,81]","92.3"
"546","2439","6","25","1","89","1","1581510784","1581510472","184","[84,99,5,34,47,51,82,33,91,49,31,43,41,72,60,21,69,2,59,9,95,98,57,97,80,1,100,14,26,8,24,29,88,40,52,76,42,68,61,94,10,19,7,86,93,90,83,11,44,32,38,15,17,64,92,79,70,50,74,35,58,36,6,16,63,3,66,53,85,20,46,75,77,65,45,55,73,96,39,56,12,62,48,78,30,22,37,23,13,81,71,54,4,28,67]","-50.7"
"547","2426","6","25","1","59","1","1581510770","1581510472","184","[22,67,98,41,56,1]","209.2"
"548","2441","6","25","1","30","1","1581510782","1581510472","184","[24,37,10,25,18,27,46,64,72,51,16,60,73,91,32,4,34,88,65,26,5,8,55,31,14,3,38,29,77,75,54,33,44,67,47,19,2,62,57,81,17,68,85,21,42,79,70]","-144.7"
"549","2467","6","25","1","50","1","1581510731","1581510472","184","[24,75,80,79,19,90,61,10,87,49,44,93,22,88,77]","117.4"
"550","2488","6","25","1","4","1","1581510647","1581510472","184","[75,6,49,20,43,22,58,51,9]","89"
"551","2423","6","25","1","29","1","1581510777","1581510472","184","[72,37,54,59,68,9,26,14,6,61,63,43,87,13,53,4,64,48,85,39,19,58,81,65,16,88,17,22,47,78,34,27,91,73,20,55,76,62,24,49,35,60,56,50,2,12,21,1,70,40,92,30,38,33,44,93,94,11,96,90,71,41,52,23,51,69,97,15,18,46,75,79,77,83,7,84,36,5,95,98,57,8,10,100,82,80,86,74,32,67,25,28,42,89,3,45,31]","-245.9"
"552","2471","6","25","1","49","1","1581510670","1581510472","184","[77]","185.9"
"553","2498","6","25","1","20","1","1581510766","1581510472","184","[49,99,97,63,69,88]","180.2"
"554","2449","6","25","1","64","1","1581510767","1581510472","184","[56,27,77,51]","135.1"
"555","2458","6","25","1","98","1","1581510778","1581510472","184","[50,8,58,22,93]","175.4"
"556","2473","6","25","1","24","1","1581510782","1581510472","184","[72,64,49,35,39,67,56,91,98,92,89,69]","19"
"557","2455","6","25","1","86","1","1581510784","1581510472","184","[67,73,91,53,6,36]","55.3"
"558","2431","6","25","1","58","1","1581510776","1581510472","184","[77,67,4]","222.1"
"559","2403","6","25","1","79","1","1581510779","1581510472","184","[71,24,18,9,12,13,85,40,57,82,36,69,54,7,27,26,46,99,34,42]","71.9"
"560","2413","6","25","1","60","1","1581510761","1581510472","184","[100,56,48,35,74,64,39,97,50,59,9,46,41,75]","69.4"
"561","2468","6","25","1","84","1","1581510781","1581510472","184","[44,49,2,73,41,22,72,50,9,64,88,20,63,94]","145.2"
"562","2456","6","25","1","94","1","1581510703","1581510472","184","[67,48,69,19,57,61,93,95]","351.9"
"563","2500","6","25","1","68","1","1581510784","1581510472","184","[72,21,67,57,18]","209.2"
"564","2479","6","25","1","21","1","1581510770","1581510472","184","[77]","185.9"
"565","2410","6","25","1","66","1","1581510784","1581510472","184","[33,15,89]","102.7"
"566","2402","6","25","1","32","1","1581510783","1581510472","184","[6,98,69,91]","128.5"
"567","2497","6","25","1","11","1","1581510781","1581510472","184","[72,37,90,83,93,76,88,94,24,66,60,52,36,80,33,67,7,86,23,71,45,65,10]","278"
"568","2453","6","25","1","56","1","1581510784","1581510472","184","[80,61,40,99,82,72,35,2,19,97,57,50,18,20,49,79,41,14,21,12,75,4,22,65]","-1.7"
"569","2489","6","25","1","83","1","1581510656","1581510472","184","[98,74,67]","209.2"
"570","2412","6","25","1","38","1","1581510779","1581510472","184","[36,72,25,49,100,71,97,5,20,11,3,33,13,34,28,64,88,6,78,69,85,57,48,74,76,47,66,29,73,44,96,95,52,80,4,65,89,16,86,17,55,58,35,42,51,2,26,81,30,53,63,8,22,62,79,68,90,92,27,67,70,23,50,75,60,14,77,21,98,15,99]","-369.5"
"571","2474","6","25","1","69","1","1581510777","1581510472","184","[84,35,36,85,15,4,96,8,98,73,33,97,81,24,100,87,37,18,58,68,74,59,75,57,49,71,3,2,86,27,63,91,25,13,17,99,6,40,88,10,46,44]","8.1"
"572","2450","6","25","1","51","1","1581510784","1581510472","184","[100,1,21,85,5,22,34,95,43,33,52,27,3,49,35,60,37,32,72,47,18,96,93,91,73,84,90,10,19,7,41,98,80,69,44,76,2,56,50,58,53,57,39,64,55,36,24,83,81,25,78]","25.5"
"573","2425","6","25","1","34","1","1581510781","1581510472","184","[67]","209.2"
"574","2432","6","25","1","25","1","1581510767","1581510472","184","[67]","209.2"
"575","2483","6","25","1","53","1","1581510769","1581510472","184","[9,58,24,39,57,67,86,88,77]","19"
"576","2411","6","25","1","42","1","1581510779","1581510472","184","[71,3,53,83,100,67,79,10,65]","193.4"
"577","2436","6","25","1","55","1","1581510779","1581510472","184","[83,66,7,43,95,34,100,21,78,60,72,73,84,77,67,40,22,69,27,41,49,2,9,50,64,18,58,76,54,93,94,61,59,37,86,82,80,24,26,19,87,71,11,36,97,20,90,68,32,28,91,16,13,52,96,25,63,42,88,4,44,15,8,51]","76.1"
"578","2416","6","25","1","93","1","1581510769","1581510472","184","[67]","209.2"
"579","2407","6","25","1","12","1","1581510784","1581510472","184","[13,77,49,72,75]","97"
"580","2419","6","25","1","26","1","1581510783","1581510472","184","[6,43,49,22,95,60,3,44,18,59,93,7,90,10,27,1,72,24,9,84,94,83,67,17,47,35,33]","209.2"
"581","2415","6","25","1","95","1","1581510778","1581510472","184","[36,98,39,7]","81.9"
"582","2477","6","25","1","5","1","1581510750","1581510472","184","[9,1,49,22,72,41,67]","209.2"
"583","2496","6","25","1","41","1","1581510776","1581510472","184","[25,98,36,99,85,49,15,40,96,43,32,95,93,4,94,69,73,78,71,72,39,9,1,31]","145.2"
"584","2420","6","25","1","6","1","1581510784","1581510472","184","[98,72,37,74,19,28,41,43,49,96,64,83,77,88]","117.4"
"585","2485","6","25","1","2","1","1581510783","1581510472","184","[37,54,24,67,55]","133"
"586","2451","6","25","1","9","1","1581510784","1581510472","184","[97,37,100,77,35,56,31]","185.9"
"587","2464","6","25","1","22","1","1581510742","1581510472","184","[54,77,21]","185.9"
"588","2472","6","25","1","75","1","1581510781","1581510472","184","[24,63,13,18,100,77,46,12,21,68,72,39,64,4,88,56,44,65]","76.7"
"589","2442","6","25","1","7","1","1581510775","1581510472","184","[100,49,85,18,41,73,95,44,21,10,93,98,90,94,43,86,5,50,97,11,47,4,48,23]","10.3"
"590","2460","6","25","1","70","1","1581510784","1581510472","184","[1,100,48,58,85,96,65,54,64,36,56,21,35,4,78,33,47,88,40,9,80,74,39,60,72,49,34,3,89,13,46,12,50,75,76,44,29,92,67,57,22,14,99]","-87.4"
"591","2461","6","25","1","37","1","1581510774","1581510472","184","[67]","209.2"
"592","2466","6","25","1","63","1","1581510780","1581510472","184","[67,57,44,84]","351.9"
"593","2484","6","25","1","96","1","1581510784","1581510472","184","[61,3,97,74,53,89,8]","102"
"594","2447","6","25","1","85","1","1581510781","1581510472","184","[67,77]","144.9"
"595","2452","6","25","1","97","1","1581510784","1581510472","184","[26,80,7,84,88,67,47,71,44,65]","171.5"
"596","2430","6","25","1","8","1","1581510784","1581510472","184","[80,25,37,72,15,96,94,97,49,43,41,22,1,9,27,85,47,2,40,21,84,44,6,34,65,38,98,46,60,18,12,50,87,61,95,54,19,55,45,16,66,73,86,33,4,52,93,82,24,5,92,57,30,62,78,89,67,64,56,51,20,91,88,74,26,58,35,31,76,75,39,14,32,70,77,69,29]","44.8"
"597","2486","6","25","1","88","1","1581510776","1581510472","184","[71,98,25,36,73,54,63,18,23,24,62,46,50,26,5,64,67,20,27,13,34,81,1,74,53,37,32,77,16,97,100,99,49,9,2,21,82,12,40,44,86,11,85,10,76,87,45,91,14,33,58,6,75,43,83,80,51,94,93,69,89,72,65,17,47,8,79,55]","612.3"
"598","2493","6","25","1","67","1","1581510760","1581510472","184","[76,63,24,36,15,98,72,74,90,19,94,18,5,85,40,96,48,10,61,17,35,44,57,88,65,86,83,37,60,21,73,91,3,93,49,100,80,9,47,97,55,95,99,43,87,39,51,68,54,31,13,82,59,11,27,2,1,89,16,42,58,41,45,81,71,53,84,33,66,38,7,50,46,34,12,78,70,77,62,92,8,14,69,28,20,79,26,29,25,64,4,30,22,56,52,75,23,6,32]","4964.9"
"599","2482","6","25","1","62","1","1581510782","1581510472","184","[1,100,76,50,97,56,92,99,37,60,53,49,84,47,73,57,95,72,22,2,59,79,21,80,81,87,43,77,61,10,14,74,93,66,98,91,82,12,58,18,44,7,41,90,83,19,86,69,70,27,45,9,13,40,78,24,68,6,15,64,31,48,4,75,67,71,8,88,20,35,33,89,38]","-68.5"
"600","2424","6","25","1","17","1","1581510780","1581510472","184","[15,51,75,67,44,41,74,79,88]","140.2"
