"id","id_subj","round","session","period","id_grp","grp","time","time_start","duration","links","payoff"
"1","546","1","6","1","45","1","1562237369","1562237114","261","[64,72,94,19,99,8,61,50,57,17,27,4,65,89,42,53,28,36,84,10,71,56,2,68,33,3,35,43,82,90]","573.4"
"2","503","1","6","1","56","1","1562237372","1562237114","261","[72,15,76,83,18,1,71,6,64,26,67,40,33,57,49,54,51,31,42,10,74,5,60]","248.4"
"3","505","1","6","1","33","1","1562237374","1562237114","261","[88,37,7,62,29,11,24,36,53,89,82,85,42,34,17,20,70,61,67,10,74]","168.4"
"4","552","1","6","1","6","1","1562237375","1562237114","261","[9,2,59,57,80,53,34,40,99,52,76,4,97,47,64,19,55,28,48,35]","168.4"
"5","513","1","6","1","60","1","1562237360","1562237114","261","[91,87,29,23,31,83,90]","328.4"
"6","537","1","6","1","12","1","1562237375","1562237114","261","[100,9,99,2,13,19,80,75,94,22,34]","88.4"
"7","599","1","6","1","49","1","1562237364","1562237114","261","[48,37,59,75,19,31,2,26,73,57,1,14,45,72,27,95,15,89,69]","168.4"
"8","556","1","6","1","83","1","1562237374","1562237114","261","[89,5,84,87,91,28,49,26,38,86,60,90,29,85,21,56,97]","-151.6"
"9","585","1","6","1","8","1","1562237337","1562237114","261","[43,22,57,55,41,40,36,66,24,73,1,94,49,33,75,95]","88.4"
"10","590","1","6","1","7","1","1562237365","1562237114","261","[37,14,56,24,27,1,15,38,96]","328.4"
"11","563","1","6","1","70","1","1562237375","1562237114","261","[63,15,2,71,56,16,20,67,28,10,72,81,49,80,98,87,65,79,39,19,17,4,96,75,99,1,24]","88.4"
"12","511","1","6","1","52","1","1562237362","1562237114","261","[17,79,60,58,82,38,19,40,14,97,7,27,76,28,13,53,85]","168.4"
"13","593","1","6","1","23","1","1562237367","1562237114","261","[62,50,44,95,2,72,75,69,22]","328.4"
"14","525","1","6","1","11","1","1562237312","1562237114","261","[1,79,75,25,59,43,2,62,64,33,28,63,88]","8.4"
"15","589","1","6","1","99","1","1562237371","1562237114","261","[2,76,13,34,12,22,20,15]","88.4"
"16","584","1","6","1","67","1","1562237372","1562237114","261","[58,98,69,61,38,65,23,6,73,24,19,59,71,100,85]","88.4"
"17","547","1","6","1","2","1","1562237374","1562237114","261","[99,21]","328.4"
"18","517","1","6","1","47","1","1562237369","1562237114","261","[4,56,92,38,76,82,73,90,45,6,85,97]","88.4"
"19","535","1","6","1","81","1","1562237375","1562237114","261","[63,26,75,82,58,21,35,36,66,13,94,99,14,6,31,28,87,42,40,3,100,68,90,43]","-311.6"
"20","532","1","6","1","32","1","1562237364","1562237114","261","[92,46,27,93]","328.4"
"21","595","1","6","1","95","1","1562237365","1562237114","261","[75,22,49,40,34,17,79,13,15,11,57,31,91,35,66,80,64,73,36]","328.4"
"22","536","1","6","1","53","1","1562237373","1562237114","261","[31,2,22,24,58,63,50,61,88,69,60,74,96,34,94,73,89,7,99,30,29,67]","328.4"
"23","516","1","6","1","89","1","1562237373","1562237114","261","[24,75,63,60,88,54,12,95,41,51,64,79,22,5]","328.4"
"24","559","1","6","1","34","1","1562237375","1562237114","261","[79,24,2,27,84,47,41,76,57,62,98,52,10,93,12,13,73,45,42,49,26,19,67,68,39]","168.4"
"25","567","1","6","1","96","1","1562237373","1562237114","261","[58,76,24,27,17]","248.4"
"26","541","1","6","1","1","1","1562237310","1562237114","261","[38,9,82,15,34,13]","328.4"
"27","566","1","6","1","66","1","1562237375","1562237114","261","[76,15,84,57,18,31,8,17,60,37,82,48,63,75,49,32,77,5,73,55,6,59,78,86,81,44,90,43,51,69,88,64,11,33,39,94,89,41,61]","-551.6"
"28","587","1","6","1","41","1","1562237375","1562237114","261","[49,79,75,21,85,2,57,34,9,15,6,18,99,10,70,12,95,25,8,54,43,22,80,51,89,13,65,82,55]","-471.6"
"29","592","1","6","1","73","1","1562237372","1562237114","261","[8,3,82,66,36,7,64,67,38,24,19,62,26,53,15,97,57,72,35,28,42,33,74]","-391.6"
"30","539","1","6","1","27","1","1562237369","1562237114","261","[17,82,96,52,92,14,93]","248.4"
"31","554","1","6","1","40","1","1562237374","1562237114","261","[37,49,100,97,57,19,75,88,26,61,32,76,22,18,99,13,96,67,34,6,79,65]","8.4"
"32","588","1","6","1","5","1","1562237369","1562237114","261","[22,85,70,63,88,29,56,28,58]","248.4"
"33","572","1","6","1","63","1","1562237374","1562237114","261","[18,8,75,57,92,66,64,29,50,43,54,11]","168.4"
"34","510","1","6","1","78","1","1562237374","1562237114","261","[63,75,8,100,89,29,44,66,5,62,28,48]","168.4"
"35","577","1","6","1","20","1","1562237370","1562237114","261","[8,17,49,59,9,14,19,99,51,93,4,76,87,85,43,70,10]","88.4"
"36","543","1","6","1","9","1","1562237370","1562237114","261","[18,1,8,25,6,57,10,53,41]","88.4"
"37","597","1","6","1","55","1","1562237370","1562237114","261","[48,61,31,8,35,66,62,53,85,90,44,59,30,25,54,39,29,17,84,41]","-551.6"
"38","573","1","6","1","18","1","1562237366","1562237114","261","[8,17,49,2,9,41,75,22,15,39,6,53,13,92,94,99]","88.4"
"39","575","1","6","1","44","1","1562237372","1562237114","261","[75,76,59,18,66,35,88,43,78,62,23,77,55,54,8]","-151.6"
"40","564","1","6","1","35","1","1562237327","1562237114","261","[98,43,75,18,36,81,74,88,53,62,34,1,85,64,57,25,65,21,29,46,73,55,61,44,3,33,66]","-551.6"
"41","578","1","6","1","68","1","1562237341","1562237114","261","[48,17,16,21,65,25,81,28,45]","-71.6"
"42","527","1","6","1","24","1","1562237372","1562237114","261","[38,7,96,92,50]","248.4"
"43","583","1","6","1","91","1","1562237372","1562237114","261","[79,84,58,62,23,56,87,3,85]","248.4"
"44","531","1","6","1","31","1","1562237360","1562237114","261","[1,65,42,5,36,56,52,57,19,49]","328.4"
"45","596","1","6","1","38","1","1562237351","1562237114","261","[1,2,72,76,56,79,32,92,96,7,45,20,42,53]","168.4"
"46","533","1","6","1","36","1","1562237353","1562237114","261","[72,21,26,37,49,62,77,73,81,85]","8.4"
"47","576","1","6","1","80","1","1562237359","1562237114","261","[4,64,25,52,59,99,41,12]","88.4"
"48","600","1","6","1","57","1","1562237373","1562237114","261","[2,82,79,15,96,53,25,73,49,89,64]","88.4"
"49","594","1","6","1","86","1","1562237366","1562237114","261","[15,8,58,83,21,48,17,22,81,66,18,6,37,63,3,42,91,50,69,4,28,100]","168.4"
"50","561","1","6","1","84","1","1562237373","1562237114","261","[74,58,5,24,38,62,7,65,98,21,83,91,36]","168.4"
"51","557","1","6","1","15","1","1562237375","1562237114","261","[8,75,21,22,82,76,19,69,9,92,99,18]","248.4"
"52","574","1","6","1","77","1","1562237366","1562237114","261","[36,48,66,79,54,25,43,85,28,64,90,21,44,65,78,84]","-631.6"
"53","579","1","6","1","92","1","1562237373","1562237114","261","[18,1,71,49,28,66,67,73,24,38,7,82,6,94,20]","248.4"
"54","560","1","6","1","4","1","1562237361","1562237114","261","[76,72,47,80,16,37,75,25,17,49,85,56,70,33,64,92,26,38,45,20,97,87,90,53,83,98,71,96,65,50,21]","-631.6"
"55","562","1","6","1","97","1","1562237336","1562237114","261","[4,47,27,18,73,38,28,22,34,14,40,70,72,93,99,63,50,88,3,52,90,17,87,83,37,51,33,29,66,84,65,92,6,44,58]","-551.6"
"56","570","1","6","1","22","1","1562237370","1562237114","261","[19,82,18,13,75,34,6,12,59,2]","248.4"
"57","591","1","6","1","48","1","1562237373","1562237114","261","[58,86,66,87,55,63,77,96,57,29,85,49,100]","8.4"
"58","569","1","6","1","30","1","1562237375","1562237114","261","[76,49,59,88,84,82,64,57,22,79,5,73,40,25,31,19,61,55,48,36,86,15,50,58,80]","8.4"
"59","580","1","6","1","61","1","1562237205","1562237114","261","[76,8,79,25,35,67,21,55]","8.4"
"60","558","1","6","1","62","1","1562237315","1562237114","261","[76,15,72,64,24,36,31,88,50,55,29,23,12,51,40,56,1,37,66]","88.4"
"61","502","1","6","1","21","1","1562237375","1562237114","261","[84,37,2,74,4,6,79,5,63,81,38,71,68,26,69,36,28,62,77,53,10,35,100,31,17,98,42,25,70,20,73,67,65,61,43]","-551.6"
"62","528","1","6","1","54","1","1562237374","1562237114","261","[37,39,17,79,29,77,66,64,30,11,63,44,62,23]","8.4"
"63","501","1","6","1","79","1","1562237361","1562237114","261","[37,48,74,89,25,61,6,66,34,5,40,13,39,11,77,15,64,30,54,59,95,57,29]","-631.6"
"64","550","1","6","1","42","1","1562237371","1562237114","261","[14,63,64,24,67,20,85]","328.4"
"65","581","1","6","1","37","1","1562237340","1562237114","261","[8,17,75,100,59,13,91,54,51,33,6,89]","248.4"
"66","582","1","6","1","46","1","1562237362","1562237114","261","[35,98,32,38,62,76,2,90,50,5,69,22,89,92,29,86,56]","168.4"
"67","506","1","6","1","85","1","1562237372","1562237114","261","[54,75,21,4,72,25,99,49,57,6,73,34,56,92,26,71,62,69,55,89,66,61,77,65,3,84,23,90,47,20,64,33,30,13,22,95,41,28,53,17,87,42,67,40,5,60,83,91,100,58,35,7,24,96,27,52,14,76,19,9,94,36,46,10]","-1191.6"
"68","565","1","6","1","94","1","1562237370","1562237114","261","[56,85,34,15,12,13,82,89]","328.4"
"69","523","1","6","1","19","1","1562237375","1562237114","261","[38,82,73]","328.4"
"70","521","1","6","1","26","1","1562237371","1562237114","261","[4,7,44,40]","328.4"
"71","568","1","6","1","98","1","1562237375","1562237114","261","[46,48,42,5,71,67,23,49,35,34,62,90,4,83,84,28,76,70,21,25,29]","-551.6"
"72","530","1","6","1","72","1","1562237371","1562237114","261","[97,65,71,3,100]","168.4"
"73","553","1","6","1","90","1","1562237375","1562237114","261","[83,71,56,46,66,96,91,65,29,84,10,4,28,93,85,40,32,81,77,55,47,97,3,98,23,60]","-631.6"
"74","515","1","6","1","59","1","1562237375","1562237114","261","[56,19,64,31,39,55,61,79,8,57,99,15,9,89,69,88,95,33,30,63,62]","8.4"
"75","545","1","6","1","28","1","1562237374","1562237114","261","[76,17,14,46,93,1,63,24,57,36,77,8,59,100,74,81,13,34,22,15,12,94,82,19,85,7,99,75,53,64,31,37,9,23,86,5,29,91,71,3,68,56,84,58,16,20,26,47,96,27,2,18,41,30,33,88,62]","-231.6"
"76","526","1","6","1","25","1","1562237367","1562237114","261","[8,80,79,85,82,61,75,9,18,62,22,17,40,64,77,36,57,35,53,41,4,28,70,93,10,98,3,11,95,37,66,74,48,68,45,1,99,30,33,6,29,60,65,55,73,39]","-1031.6"
"77","524","1","6","1","65","1","1562237374","1562237114","261","[17,48,75,56,74,46,82,19,26,54,90,96,62,40,79,38,35,4,16,33,25,61,53,97,76,72,58,73,77,41,68,85]","-471.6"
"78","538","1","6","1","3","1","1562237363","1562237114","261","[72,37,32,69,58,90,92,96,91,16,74,100,56,26,65,40,22,52,67]","88.4"
"79","509","1","6","1","100","1","1562237375","1562237114","261","[48,78,74,60,58,38,49,40,63,85,21,67,3,81,28,43]","-391.6"
"80","540","1","6","1","71","1","1562237366","1562237114","261","[72,19,65,58,46,98,74,42]","328.4"
"81","549","1","6","1","17","1","1562237367","1562237114","261","[88,46,49,59,75,32,22,24,3,7,34,19,64,53,6,45,57,61,87,9,63,100,72]","248.4"
"82","548","1","6","1","13","1","1562237368","1562237114","261","[84,76,8,49,79,2,22,75,19,6,38]","248.4"
"83","519","1","6","1","87","1","1562237372","1562237114","261","[8,5,7,96,58,100,56,4,97]","328.4"
"84","534","1","6","1","88","1","1562237373","1562237114","261","[69,33,30,50,91,43,8,44,14,12,27,59,11]","8.4"
"85","542","1","6","1","69","1","1562237346","1562237114","261","[88,66]","328.4"
"86","555","1","6","1","93","1","1562237375","1562237114","261","[59,97,23,54,52,72,32,75,56,14,2,42,22,11]","248.4"
"87","520","1","6","1","82","1","1562237373","1562237114","261","[6,95,19,73,13,30]","248.4"
"88","522","1","6","1","58","1","1562237374","1562237114","261","[3,56,60,81,20,89]","328.4"
"89","544","1","6","1","43","1","1562237374","1562237114","261","[8,42,24,100,17,19,21,67,91,51,35,39,37,6,31,77,89,30,33,40,41,10,83,20,29,81,57,73]","-231.6"
"90","507","1","6","1","16","1","1562237374","1562237114","261","[68,28]","328.4"
"91","508","1","6","1","64","1","1562237374","1562237114","261","[57,76,80,63,42,32,5,58,73,79,36,40,25,77,35,22,59,53,8,11,29,69,23,62,28,78,31]","-631.6"
"92","504","1","6","1","76","1","1562237366","1562237114","261","[96,99,42,32,5,64,38,7,27,84,67,98,65]","8.4"
"93","518","1","6","1","50","1","1562237114","1562237114","261","[]","0"
"94","529","1","6","1","14","1","1562237366","1562237114","261","[97,13,27,52,95,79]","248.4"
"95","512","1","6","1","75","1","1562237374","1562237114","261","[15,93,13,27]","248.4"
"96","551","1","6","1","10","1","1562237374","1562237114","261","[8,49,18,79,59,22,75,19,54,62,38,65,28,73,31,21,70,84]","328.4"
"97","514","1","6","1","29","1","1562237375","1562237114","261","[37,27,84,40,24,89,67,65,100,83,3,66,78,61,11,81,98,34,80]","248.4"
"98","571","1","6","1","51","1","1562237369","1562237114","261","[17,43,53,64,39,37,63,41,94,11,66,62]","8.4"
"99","598","1","6","1","39","1","1562237374","1562237114","261","[49,37,59,61,51,45,11,88,70,25,15,54,30]","88.4"
"100","586","1","6","1","74","1","1562237374","1562237114","261","[60,100,87,58,64,53,25]","248.4"
"101","572","2","6","1","61","1","1562237855","1562237649","261","[48,37,80,64,85,28,99]","323.4"
"102","537","2","6","1","83","1","1562237865","1562237649","261","[98,23,75,66]","243.4"
"103","552","2","6","1","96","1","1562237870","1562237649","261","[24,48,23,40,52,49,80,81,63,55,64,17,53,29,62,79,83,50,51,84,57,69,12,98,67,74,13,11,5,33,97,95,37,99,70,38,36]","3.4"
"104","530","2","6","1","67","1","1562237838","1562237649","261","[66,56]","323.4"
"105","574","2","6","1","38","1","1562237871","1562237649","261","[63,81,47,65,33,5,59,25,41,49,85,13]","323.4"
"106","599","2","6","1","47","1","1562237862","1562237649","261","[64,80,46,75,85,42,49,4,96,97,62,3,59,60,87,44,70,73,95,67,58,77,39,82,6]","566.7"
"107","566","2","6","1","4","1","1562237867","1562237649","261","[9,18,22,97,80,52,1,56]","246.7"
"108","532","2","6","1","41","1","1562237840","1562237649","261","[90,32,73,85]","323.4"
"109","502","2","6","1","98","1","1562237672","1562237649","261","[9,23,50,57,63,83,72,26]","323.4"
"110","579","2","6","1","57","1","1562237865","1562237649","261","[76,15,72,36,74,71,91,6,82,39,18,63,54,97,34,100]","486.7"
"111","598","2","6","1","30","1","1562237867","1562237649","261","[98,80,100,43,49,46,31,25,42,38,73,41,55,64]","323.4"
"112","556","2","6","1","80","1","1562237871","1562237649","261","[78,21,40,4,65,50,70]","566.7"
"113","541","2","6","1","85","1","1562237763","1562237649","261","[28,61]","323.4"
"114","529","2","6","1","14","1","1562237869","1562237649","261","[85,76,55,74,4,38,62,86,69,68,22,30,31,72]","323.4"
"115","600","2","6","1","17","1","1562237867","1562237649","261","[47,99,65,49,8,7]","323.4"
"116","527","2","6","1","36","1","1562237840","1562237649","261","[97,28]","323.4"
"117","588","2","6","1","39","1","1562237859","1562237649","261","[21,20,9,54,71,75,91]","246.7"
"118","567","2","6","1","73","1","1562237803","1562237649","261","[71,47,42]","246.7"
"119","577","2","6","1","94","1","1562237861","1562237649","261","[58,81,28,92,84,8,87,79,76,45]","163.4"
"120","513","2","6","1","42","1","1562237871","1562237649","261","[25,75,53,62,86,60,100,11,32]","323.4"
"121","597","2","6","1","8","1","1562237865","1562237649","261","[9,94,20,17,19,99,51,61,72,40,10,7,37,29,76,35,89,48,31,66,69,42,54]","-553.3"
"122","563","2","6","1","59","1","1562237863","1562237649","261","[76,14,49,15,22,77,82,57,50,45,90,4,9,36,1,87,60,12,40,89]","243.4"
"123","503","2","6","1","81","1","1562237870","1562237649","261","[84,15,98,36,37,1,49,28,82,50,53,29,4,51,41,46,67,80,94,76]","163.4"
"124","538","2","6","1","77","1","1562237871","1562237649","261","[58,74,37,64,97,61,73,91,18,82,41,70,98,54,49,72]","323.4"
"125","569","2","6","1","97","1","1562237859","1562237649","261","[63,51,88,46,36]","323.4"
"126","589","2","6","1","37","1","1562237856","1562237649","261","[64,51,72,8,24,20]","243.4"
"127","510","2","6","1","75","1","1562237867","1562237649","261","[48,17,21,83,66,78,96,58,89,3,88,57,67,82]","163.4"
"128","523","2","6","1","86","1","1562237856","1562237649","261","[97,28,42,84]","323.4"
"129","550","2","6","1","54","1","1562237867","1562237649","261","[47,21,38,74,17,70,35,8,46,20,5,72]","243.4"
"130","581","2","6","1","63","1","1562237861","1562237649","261","[21,71,60,97,64,58,20,74,93,4,40,36,54,96,88,45,11,23,59,38,33]","83.4"
"131","555","2","6","1","68","1","1562237871","1562237649","261","[96,77,28,44,57,6,14]","243.4"
"132","554","2","6","1","26","1","1562237871","1562237649","261","[23,16,22]","243.4"
"133","507","2","6","1","51","1","1562237855","1562237649","261","[48,17,38,21,8,86,37]","323.4"
"134","583","2","6","1","65","1","1562237854","1562237649","261","[1,97,21,85,76,58,64,20,96,12,71,36,95,74,50,55,42]","323.4"
"135","582","2","6","1","5","1","1562237864","1562237649","261","[91,31,2,54,82,1,36,96]","406.7"
"136","535","2","6","1","12","1","1562237734","1562237649","261","[82,97,18,100,80,38,71,88,40,54,74,65]","243.4"
"137","515","2","6","1","11","1","1562237684","1562237649","261","[72,24,79,9,100,28]","246.7"
"138","501","2","6","1","82","1","1562237869","1562237649","261","[76,57,78,31,43]","246.7"
"139","508","2","6","1","58","1","1562237870","1562237649","261","[37,64,88,29,98,77,10,72,32,53]","323.4"
"140","545","2","6","1","40","1","1562237813","1562237649","261","[12,10,17,80,64,36,38,47,8,27,79,42,88,58,78,87,11,19,90,82,18,14,84,23,50,3,46,35,28,85,45,60,65,71,98,56,39,75,44,93,68,97,61]","-396.6"
"141","571","2","6","1","35","1","1562237869","1562237649","261","[8,9,81,94,42,74,21,49,36,60,78,45,85,92,40,1]","163.4"
"142","521","2","6","1","1","1","1562237864","1562237649","261","[58,51,36,83,86,14,55,76,59]","323.4"
"143","559","2","6","1","56","1","1562237871","1562237649","261","[17,64,48,76,80,82,15,67,26,89,55,83,40]","323.4"
"144","540","2","6","1","46","1","1562237870","1562237649","261","[11,41,2,58,73,67,88,82,40,38,62,3,61]","323.4"
"145","517","2","6","1","89","1","1562237871","1562237649","261","[8,57,21,81,84,80,65,64,55]","323.4"
"146","561","2","6","1","25","1","1562237868","1562237649","261","[15,80,9,76,18,57,70,54,69,46,29]","83.4"
"147","593","2","6","1","6","1","1562237867","1562237649","261","[3,14,82,68,56,74]","243.4"
"148","584","2","6","1","62","1","1562237822","1562237649","261","[15,57,85,1,75,53,49,68,47,36,84]","243.4"
"149","585","2","6","1","70","1","1562237869","1562237649","261","[17,80,54,45,47,49,3,77,25,96,58]","-156.6"
"150","547","2","6","1","28","1","1562237867","1562237649","261","[36,85]","323.4"
"151","580","2","6","1","44","1","1562237838","1562237649","261","[51,58,68,93,63,34,40]","323.4"
"152","534","2","6","1","18","1","1562237857","1562237649","261","[100,76,16,25]","323.4"
"153","511","2","6","1","64","1","1562237870","1562237649","261","[17,48,60,51,30,61,23]","323.4"
"154","586","2","6","1","29","1","1562237871","1562237649","261","[47,76,26,9,17,65,57,79,37,11,15,25,16,60]","323.4"
"155","539","2","6","1","2","1","1562237870","1562237649","261","[55,97,9,42,47,35,31,62,73,37,39,86,12,5,49,82]","246.7"
"156","576","2","6","1","95","1","1562237871","1562237649","261","[6,32,24]","323.4"
"157","565","2","6","1","32","1","1562237859","1562237649","261","[83,15,41,90,95,42]","243.4"
"158","536","2","6","1","34","1","1562237849","1562237649","261","[76,15,72,10,23,40,64,35,96,63,46,33,31]","163.4"
"159","522","2","6","1","33","1","1562237871","1562237649","261","[13,46,42,37,31,22,62,2,48,53,34,97,77,18,56,96,6]","83.4"
"160","568","2","6","1","27","1","1562237862","1562237649","261","[1,38,17,49,100,33,97,21,43,22,51,52,77,81,30,5,42,16,19,14,11,20,92,35,15,26,18]","163.4"
"161","578","2","6","1","92","1","1562237864","1562237649","261","[20,94,90,22,38,97,63,61,65,30,35,60,11,41,32,52,87,78,7,19]","-156.6"
"162","557","2","6","1","60","1","1562237868","1562237649","261","[58,75,85,17,51,61,30,16,15,48,29,26,11,59,3,69,72,2,90,54,31]","163.4"
"163","587","2","6","1","88","1","1562237869","1562237649","261","[21,74,86,68,54,75,47,66,49]","243.4"
"164","525","2","6","1","84","1","1562237763","1562237649","261","[57,56,62,86,89,87,6,81,64,78,59,2]","163.4"
"165","544","2","6","1","71","1","1562237871","1562237649","261","[55,96,12,21,31,35,9,86,60,50,90,56,80,94]","323.4"
"166","546","2","6","1","49","1","1562237860","1562237649","261","[76,4,80,58,87,88,23,70,86,12,10,78]","243.4"
"167","575","2","6","1","53","1","1562237843","1562237649","261","[62,71,72,57]","323.4"
"168","573","2","6","1","52","1","1562237865","1562237649","261","[1,100,48,17,37,64,85,60,28,36,51,92,61,21,2,22,38,55,43]","163.4"
"169","590","2","6","1","78","1","1562237820","1562237649","261","[45,35,92,49]","163.4"
"170","512","2","6","1","3","1","1562237857","1562237649","261","[99,86,46,6,70,55,14]","163.4"
"171","595","2","6","1","31","1","1562237868","1562237649","261","[38,33,36,8,99,90,47,22,5,1,24,29,32,13,12,61,52,42,76,18,14,84,50,96,59,49,62,15,92,7,26,97,85,63,37,40,34,78,46,66,80,11,45]","-156.6"
"172","553","2","6","1","69","1","1562237869","1562237649","261","[93,24,72,8,25]","83.4"
"173","596","2","6","1","16","1","1562237871","1562237649","261","[37,15,98,26,18,100,9,39,47,74,86,28,59,27,33,91,61,64,52,43]","83.4"
"174","594","2","6","1","13","1","1562237869","1562237649","261","[98,80,36,33,16,94,64,63,57,38,44,51,35,15,100,5,55,1,43,52,22,21]","163.4"
"175","591","2","6","1","79","1","1562237865","1562237649","261","[47,80,81,72,40]","323.4"
"176","564","2","6","1","72","1","1562237854","1562237649","261","[8,48,17,37,100,58,57,59,38,47,76,10,53,25,71,65,79,12,81,94,28,36,80,69,29,49,34,24,2,95,20,42,98,96,60]","-556.6"
"177","558","2","6","1","7","1","1562237849","1562237649","261","[92,38,64,25,17,59,8,31]","163.4"
"178","570","2","6","1","100","1","1562237866","1562237649","261","[43,22,20,7]","323.4"
"179","560","2","6","1","87","1","1562237869","1562237649","261","[48,58,74,28,90,77,92,13,14,4,76]","323.4"
"180","562","2","6","1","15","1","1562237844","1562237649","261","[16,25,60]","243.4"
"181","592","2","6","1","93","1","1562237659","1562237649","261","[24,63,87,69]","243.4"
"182","518","2","6","1","91","1","1562237867","1562237649","261","[76,36,49,47,39,57,5,2,68]","566.7"
"183","533","2","6","1","50","1","1562237848","1562237649","261","[58,21,55,40,71,81]","243.4"
"184","549","2","6","1","66","1","1562237869","1562237649","261","[3,75,67,83,78,96,10,62,6,37,48,27,49,55,88,8,32,57,100,15,13,90,92,36,30,73,79,95,71,80,56,47,69,1,52]","3.4"
"185","520","2","6","1","10","1","1562237871","1562237649","261","[40,66,34]","243.4"
"186","543","2","6","1","45","1","1562237866","1562237649","261","[78,49,4,33,59,80,61,21,38]","323.4"
"187","526","2","6","1","43","1","1562237866","1562237649","261","[100,1,19,27,30,90,4,13,25,42,36,91,28,16,38,52,55,45]","-76.6"
"188","551","2","6","1","21","1","1562237870","1562237649","261","[17,58,36,40,94,27,14,18,85,75,74]","323.4"
"189","516","2","6","1","76","1","1562237864","1562237649","261","[55,38,87,99,16,42,15,81,84,69,95,86,85,12,94,17,35,19,9]","163.4"
"190","531","2","6","1","48","1","1562237870","1562237649","261","[25,74,81,8,20,72]","243.4"
"191","548","2","6","1","55","1","1562237847","1562237649","261","[1,17,80,64,72,97,53,91,34,57,54,84,98,12,9,51,40,38,52]","323.4"
"192","542","2","6","1","23","1","1562237818","1562237649","261","[96,26]","323.4"
"193","524","2","6","1","22","1","1562237871","1562237649","261","[76,33,80,58,43,51,99,64,42,49,5,61,40,52,41,11,96,28,32,13,26,2,77,20,1,44,73,25,72,95,18,30]","83.4"
"194","514","2","6","1","74","1","1562237871","1562237649","261","[25,58,97,82,60,4,52,93,28,41,57,53,94,90,71,62,80,61,40,89,75,6,84,98,3,83]","243.4"
"195","504","2","6","1","99","1","1562237870","1562237649","261","[20,47,60,74,95,67,75,6,90,31,8,4,3,57]","163.4"
"196","519","2","6","1","90","1","1562237869","1562237649","261","[61,55,80,74,41,56,67,82]","323.4"
"197","528","2","6","1","9","1","1562237850","1562237649","261","[8,38,80,21]","246.7"
"198","505","2","6","1","24","1","1562237871","1562237649","261","[76,98,30,27,29,79,20,11,88,44,66,67,3,55,6,56,45,4,35,16,22,100,17,89,74,72,54,31,69,93,7,19,95,96,15]","246.7"
"199","509","2","6","1","19","1","1562237867","1562237649","261","[8,1,100,43,9,90,41,82,91,22,13,92,87,94,40,27,11,5,99,33,76]","3.4"
"200","506","2","6","1","20","1","1562237868","1562237649","261","[100,49,17,80,43,99,47,76,48,28,84,21,72,34,30,64,5,38,71,25,19,31,53,77,65,63,97,22,92,96,74]","-156.6"
"201","574","3","6","1","35","1","1562238237","1562238138","222","[72,76,48,89,60,66,65,43,52]","319.2"
"202","527","3","6","1","59","1","1562238214","1562238138","222","[34,43]","244.6"
"203","530","3","6","1","4","1","1562238236","1562238138","222","[9,99,86,30,82,18]","319.2"
"204","572","3","6","1","6","1","1562238236","1562238138","222","[1,49,100,80,18,76,56,47]","319.2"
"205","541","3","6","1","48","1","1562238224","1562238138","222","[8,82,40,38]","319.2"
"206","531","3","6","1","73","1","1562238240","1562238138","222","[100,5,2,62,58]","319.2"
"207","583","3","6","1","77","1","1562238221","1562238138","222","[8,37,1,48,17,80,74,46,82,78,21,50,98,63]","239.2"
"208","536","3","6","1","60","1","1562238240","1562238138","222","[35,15,97,88,98,36,41,45]","79.2"
"209","551","3","6","1","38","1","1562238233","1562238138","222","[8,80,48,3,34,75,21,61,84,51,100]","159.2"
"210","510","3","6","1","28","1","1562238239","1562238138","222","[8,49,5,17,85,100,59,67,25,54,34,87,84,57]","319.2"
"211","537","3","6","1","95","1","1562238234","1562238138","222","[8,97,63,92,75,71,68]","244.6"
"212","519","3","6","1","23","1","1562238239","1562238138","222","[27,89,54,1,52]","239.2"
"213","532","3","6","1","58","1","1562238237","1562238138","222","[97,8,73,63,85,53,23,36,16,52,49,44,7,95,66,70,77,74,55]","239.2"
"214","553","3","6","1","46","1","1562238239","1562238138","222","[79,47,27]","239.2"
"215","593","3","6","1","71","1","1562238205","1562238138","222","[89,74]","244.6"
"216","535","3","6","1","47","1","1562238235","1562238138","222","[84,51,80,76,67,49,46,17,19,48,13,6,3,34,39,31,44,68,36,21]","79.2"
"217","547","3","6","1","33","1","1562238239","1562238138","222","[26,17,94]","239.2"
"218","502","3","6","1","69","1","1562238175","1562238138","222","[57,63,76,83,96]","159.2"
"219","518","3","6","1","93","1","1562238238","1562238138","222","[1,48,79,19,57,26,6,37,31,55,78,67,83,74]","159.2"
"220","589","3","6","1","41","1","1562238209","1562238138","222","[64,1,18,32,26]","239.2"
"221","591","3","6","1","100","1","1562238230","1562238138","222","[39,59,62,34,43]","239.2"
"222","501","3","6","1","76","1","1562238235","1562238138","222","[2,27,11]","319.2"
"223","525","3","6","1","5","1","1562238236","1562238138","222","[26,28,73,30,17,92,91]","239.2"
"224","569","3","6","1","37","1","1562238240","1562238138","222","[76,36,31,98,50,15,77]","239.2"
"225","507","3","6","1","3","1","1562238238","1562238138","222","[1,49,100,18,80,48,82,36,97,61,76,19,87,54,6,21]","319.2"
"226","555","3","6","1","11","1","1562238240","1562238138","222","[18,84,66,54,22]","159.2"
"227","550","3","6","1","49","1","1562238230","1562238138","222","[64,57,1,24,34,26]","319.2"
"228","599","3","6","1","34","1","1562238236","1562238138","222","[49,59,85,99,75,21,61,6,67,56,13,40,37,50,71,15,70,91]","400.4"
"229","552","3","6","1","51","1","1562238237","1562238138","222","[84,48,42,97,67,100,53,79,38,63,12,61]","239.2"
"230","594","3","6","1","55","1","1562238239","1562238138","222","[22,9,64,81,14,58,71,78,74]","159.2"
"231","517","3","6","1","64","1","1562238222","1562238138","222","[12,31,78,79,68,41]","239.2"
"232","512","3","6","1","43","1","1562238240","1562238138","222","[100,40,16,55,70]","319.2"
"233","522","3","6","1","88","1","1562238239","1562238138","222","[62,65,15,19,36,60,71,48,79,92,91]","400.4"
"234","595","3","6","1","72","1","1562238237","1562238138","222","[24,53,3,61,2]","239.2"
"235","600","3","6","1","17","1","1562238233","1562238138","222","[82,67,33,98,74,53,52]","320.4"
"236","592","3","6","1","70","1","1562238238","1562238138","222","[46,18,87]","319.2"
"237","558","3","6","1","20","1","1562238237","1562238138","222","[34,32,10]","319.2"
"238","590","3","6","1","18","1","1562238232","1562238138","222","[46,70,49,43,11,4]","239.2"
"239","559","3","6","1","68","1","1562238233","1562238138","222","[76,100,63,12,78,31,94,27,75,21,26,59,11,81]","239.2"
"240","516","3","6","1","89","1","1562238236","1562238138","222","[75,36,15,98,73,26,21,64,31,45,13,4,67,70]","239.2"
"241","561","3","6","1","27","1","1562238239","1562238138","222","[98,72,76,47,80,64,53,79,67,21,12,2,81,92,14,8,11,46,100,73,5,20,62]","159.2"
"242","521","3","6","1","29","1","1562238230","1562238138","222","[100,77,50,65,16,91,6,21,60,92,93,20,7,52,70,73]","239.2"
"243","587","3","6","1","54","1","1562238238","1562238138","222","[17,21,82,19,10,34,1,28,2,77,99,73,11,98,23]","79.2"
"244","513","3","6","1","10","1","1562238235","1562238138","222","[77,55,18,69,89,54,87,61,20,49,93,44,7]","159.2"
"245","540","3","6","1","30","1","1562238235","1562238138","222","[85,57,83,6,53]","409.9"
"246","538","3","6","1","63","1","1562238237","1562238138","222","[1,17,42,97,68,45,69,32]","-0.8"
"247","528","3","6","1","98","1","1562238240","1562238138","222","[60,37,17,78,36,53,82,96,94,26,32,83,20,7,59,54,34,10,91,57]","-80.8"
"248","577","3","6","1","79","1","1562238240","1562238138","222","[48,100,82,46,39,24,86,88,65,93,26,64]","-80.8"
"249","596","3","6","1","67","1","1562238216","1562238138","222","[48,17,36,40,21]","239.2"
"250","575","3","6","1","81","1","1562238239","1562238138","222","[58,90,26,32]","239.2"
"251","506","3","6","1","32","1","1562238236","1562238138","222","[92,83,6,16,33,85,13,41,62,1,20,2,26,96,7,79,81,99,63,47]","-320.8"
"252","578","3","6","1","1","1","1562238219","1562238138","222","[36,12,24,48,82,75,79,23,34,86,51,98,41,67,89,77,65]","-160.8"
"253","520","3","6","1","99","1","1562238237","1562238138","222","[34,82,24,4,1,32]","239.2"
"254","533","3","6","1","91","1","1562238237","1562238138","222","[97,29,65,88,50]","239.2"
"255","523","3","6","1","36","1","1562238239","1562238138","222","[51,1,60,89]","239.2"
"256","567","3","6","1","94","1","1562238233","1562238138","222","[71,98,33,26,86,44]","239.2"
"257","565","3","6","1","13","1","1562238237","1562238138","222","[32,62,52,89]","159.2"
"258","529","3","6","1","22","1","1562238240","1562238138","222","[55,19,11,3]","239.2"
"259","509","3","6","1","2","1","1562238238","1562238138","222","[58,76,72,80,61,27,25,49,19,8,12,65]","-80.8"
"260","554","3","6","1","42","1","1562238204","1562238138","222","[51,63,92]","239.2"
"261","563","3","6","1","31","1","1562238239","1562238138","222","[72,45,78,98,99,46,62,87,47,93]","319.2"
"262","584","3","6","1","40","1","1562238227","1562238138","222","[55,48,67,34,10]","239.2"
"263","549","3","6","1","62","1","1562238239","1562238138","222","[88,9,90,23,27,100,35,12,13,89,25,77,69,32,41,44,99,65,1,33,74]","240.4"
"264","579","3","6","1","85","1","1562238239","1562238138","222","[98,86,89,30,17,75,37,13,50,99,44,52,93,14,20,91,65]","167.4"
"265","504","3","6","1","57","1","1562238233","1562238138","222","[76,84,30,45,80,97,69,49,86]","638.2"
"266","586","3","6","1","9","1","1562238239","1562238138","222","[76,79,12,62,6,84,64,19,2,58,26,33,100]","244.6"
"267","582","3","6","1","87","1","1562238221","1562238138","222","[100,70,3,10,84,74,16,89,38]","239.2"
"268","588","3","6","1","16","1","1562238236","1562238138","222","[72,48,61,55,29,43]","319.2"
"269","515","3","6","1","83","1","1562238230","1562238138","222","[55,32,69,44]","319.2"
"270","566","3","6","1","53","1","1562238233","1562238138","222","[48,17,82,6,76]","244.6"
"271","598","3","6","1","97","1","1562238235","1562238138","222","[89,19,63,75,100,48,51,95,42,36,92,53]","560.4"
"272","545","3","6","1","52","1","1562238235","1562238138","222","[8,1,100,75,69,17,19,13,21,67,48,40,59,23,35,60]","79.2"
"273","573","3","6","1","19","1","1562238239","1562238138","222","[82,49,47,75,21,2,76,22,90,14]","159.2"
"274","585","3","6","1","78","1","1562238236","1562238138","222","[64,15,23,75,77,68,74,36,93]","79.2"
"275","571","3","6","1","74","1","1562238238","1562238138","222","[18,17,82,60,78,71,58,55,25]","320.4"
"276","568","3","6","1","24","1","1562238238","1562238138","222","[8,38,1,61,100,17,72,3,36,51,79,86,39,26,21]","-80.8"
"277","570","3","6","1","82","1","1562238238","1562238138","222","[8,100,61,74,24]","319.2"
"278","576","3","6","1","80","1","1562238194","1562238138","222","[38,25,39]","239.2"
"279","557","3","6","1","92","1","1562238234","1562238138","222","[17,74,19,36,98,53,51,86,55,48,42,75,71]","319.2"
"280","524","3","6","1","25","1","1562238210","1562238138","222","[8,17,49,80,82,85,12,100,83,63,19,18]","319.2"
"281","564","3","6","1","15","1","1562238148","1562238138","222","[88,45]","244.6"
"282","539","3","6","1","50","1","1562238240","1562238138","222","[97,17,80,72,53,69,12,60,96,91,37,41]","239.2"
"283","597","3","6","1","61","1","1562238226","1562238138","222","[8,17,24,38,100,82,53,19,72,36,80]","159.2"
"284","580","3","6","1","14","1","1562238236","1562238138","222","[58,62,19,22,55]","319.2"
"285","556","3","6","1","8","1","1562238237","1562238138","222","[79,93,53,24,2,52]","239.2"
"286","505","3","6","1","26","1","1562238239","1562238138","222","[72,98,37,96,81,33,32,94,82,79,48,74,39,93,5,53,21,89,17,24,61,38]","-400.8"
"287","560","3","6","1","84","1","1562238214","1562238138","222","[57,35,89,44,11]","239.2"
"288","581","3","6","1","75","1","1562238238","1562238138","222","[1,100,53,6,48,23,3,68,86,92]","239.2"
"289","562","3","6","1","90","1","1562238214","1562238138","222","[81,21,62]","319.2"
"290","544","3","6","1","7","1","1562238239","1562238138","222","[61,32,29,20]","319.2"
"291","508","3","6","1","86","1","1562238237","1562238138","222","[21,1,64,31,79]","319.2"
"292","546","3","6","1","65","1","1562238234","1562238138","222","[36,63,25,98,1,55,70,2]","319.2"
"293","511","3","6","1","39","1","1562238224","1562238138","222","[80,100,1,49,12,11,7,99]","239.2"
"294","534","3","6","1","66","1","1562238219","1562238138","222","[98,45,30]","244.6"
"295","514","3","6","1","21","1","1562238236","1562238138","222","[98,8,49,17,82,100,67,80,43,75,24,1,10,46,53,78,64,16,3,9,31,36,63,51,42,47,79,93,33,40,6,48,61,97]","159.2"
"296","542","3","6","1","96","1","1562238196","1562238138","222","[98,69,26,77,45,50,44,49,52]","-0.8"
"297","503","3","6","1","45","1","1562238235","1562238138","222","[84,98,83,6,96,37,66,60,69,26,64,77,40,21,63,75,29,57]","400.4"
"298","548","3","6","1","12","1","1562238227","1562238138","222","[58,79,46,25,39,2]","239.2"
"299","526","3","6","1","56","1","1562238224","1562238138","222","[34,6]","319.2"
"300","543","3","6","1","44","1","1562238240","1562238138","222","[98,86,49,92,96,29,10,84]","239.2"
"301","529","4","6","1","71","1","1562238799","1562238591","102","[98,15,5,62,39,90]","235"
"302","599","4","6","1","95","1","1562238799","1562238591","102","[74,8,60,78,57,18,66,53,61,80,27,12]","315"
"303","547","4","6","1","83","1","1562238795","1562238591","102","[98,42,55]","242.6"
"304","572","4","6","1","77","1","1562238740","1562238591","102","[36,63]","315"
"305","551","4","6","1","93","1","1562238796","1562238591","102","[8,100,89,84,57,48,2,21,20,18,54,66,62,61]","315"
"306","531","4","6","1","15","1","1562238721","1562238591","102","[8,18,100,55,42,5,49,33]","315"
"307","556","4","6","1","10","1","1562238801","1562238591","102","[31,51,29,78,55,30,94,82,74,54,49,34,17,41,36,8,80,93,43,66]","235"
"308","587","4","6","1","20","1","1562238799","1562238591","102","[48,24,11,88,34,8,6]","315"
"309","597","4","6","1","29","1","1562238794","1562238591","102","[38,80,21,84,48,59,69,41,36,97,64]","315"
"310","594","4","6","1","65","1","1562238802","1562238591","102","[24,46,21,19,60,18,95,1,61,14,51,91,70,88,79,12,15,71,92,80,82,59,23,52,48,56,64,29,93,85]","75"
"311","577","4","6","1","38","1","1562238801","1562238591","102","[76,31,77,79,17,32,34,26,55,100,88,64,35,1,14,8,2,18,21,89,65,6,28,46,41,9,96,3,97,13,47]","315"
"312","563","4","6","1","88","1","1562238787","1562238591","102","[48,85,98,8,37,17,86,36,44,24,62,5]","315"
"313","543","4","6","1","31","1","1562238801","1562238591","102","[42,90,85]","235"
"314","576","4","6","1","73","1","1562238800","1562238591","102","[8,48,100,1,21,75,79,59,57,61,60,81,95,18,96,6,37,94,52,66,53,46,17,23,38,82,54,55]","-404.9"
"315","579","4","6","1","72","1","1562238787","1562238591","102","[81,49,45,56,34,70]","235"
"316","503","4","6","1","85","1","1562238798","1562238591","102","[50,25,8,53,58,35,26,31,43,65,12,92,10,74,73,81]","155.1"
"317","567","4","6","1","12","1","1562238779","1562238591","102","[51,88,15,62,5,26,85]","235"
"318","537","4","6","1","92","1","1562238797","1562238591","102","[8,17,25,82,68,53,63,50]","315"
"319","513","4","6","1","43","1","1562238789","1562238591","102","[95,34,10,30,49,53,82,45,35,17,66,64,61,62,21,18,86,29,83]","315"
"320","568","4","6","1","99","1","1562238800","1562238591","102","[8,1,48,24,19,58,85,9,100,69,70,86,26,79,62,5,45,20,75]","-85"
"321","535","4","6","1","25","1","1562238750","1562238591","102","[97,17,79,13,82,81,62,74]","155.1"
"322","528","4","6","1","100","1","1562238764","1562238591","102","[37,96,78,9,88,95,45,26,6,3,23,48,59,24,72,22,84]","155.1"
"323","523","4","6","1","60","1","1562238789","1562238591","102","[37,17,6,91,21,11]","315"
"324","558","4","6","1","16","1","1562238787","1562238591","102","[5,62,68]","315"
"325","555","4","6","1","52","1","1562238801","1562238591","102","[82,73]","315"
"326","600","4","6","1","91","1","1562238802","1562238591","102","[8,28,33,53,45,34,18,60,62,5,65]","75"
"327","511","4","6","1","14","1","1562238792","1562238591","102","[18,80,64,45,8,85,69,42,66,19,35,81,6]","315"
"328","569","4","6","1","13","1","1562238795","1562238591","102","[25,62,82]","315"
"329","575","4","6","1","44","1","1562238800","1562238591","102","[39,55,5]","315"
"330","589","4","6","1","47","1","1562238798","1562238591","102","[62,40,20]","315"
"331","532","4","6","1","37","1","1562238785","1562238591","102","[74,52,35,87,60]","315"
"332","559","4","6","1","78","1","1562238800","1562238591","102","[8,17,48,62,5]","315"
"333","518","4","6","1","69","1","1562238801","1562238591","102","[99,17,56,8,58,19,25,77,15,72,91,43,59,45,10,24,20]","235"
"334","550","4","6","1","82","1","1562238776","1562238591","102","[71,85,52,95,62,59,100,38,19]","155.1"
"335","552","4","6","1","8","1","1562238802","1562238591","102","[30,61,43,20,69]","315"
"336","541","4","6","1","28","1","1562238779","1562238591","102","[8,47,79,84,74]","170.1"
"337","592","4","6","1","66","1","1562238791","1562238591","102","[10,27,95,84,12,50]","315"
"338","510","4","6","1","40","1","1562238802","1562238591","102","[8,37,76,59,100,84,21,88,1,58,62,32,43,47,60,3,93,51,7,22]","155.1"
"339","549","4","6","1","54","1","1562238802","1562238591","102","[94,70,92,88,82,99,84,24,65,80,96,19,29,50,30,13,43,27,85,38,7,14,2,3,89,32,49,86,95,73,57]","-85"
"340","583","4","6","1","6","1","1562238800","1562238591","102","[9,41,21,57,20,89,23,97,52,64,49,28,73]","235"
"341","509","4","6","1","35","1","1562238601","1562238591","102","[58,88,71]","242.6"
"342","578","4","6","1","75","1","1562238802","1562238591","102","[76,14,45,22,33,88,51,85,62,5,73,99]","155.1"
"343","582","4","6","1","46","1","1562238801","1562238591","102","[95,79,3]","242.6"
"344","560","4","6","1","32","1","1562238793","1562238591","102","[21,47,55,34,31,45,39,66]","165.1"
"345","553","4","6","1","63","1","1562238795","1562238591","102","[62,92,77,5]","235"
"346","519","4","6","1","26","1","1562238787","1562238591","102","[19,8,5]","244.2"
"347","573","4","6","1","17","1","1562238794","1562238591","102","[100,8,18,25,79,21,20,81]","315"
"348","522","4","6","1","70","1","1562238801","1562238591","102","[72,95,69,53,50,89]","235"
"349","539","4","6","1","22","1","1562238800","1562238591","102","[8,64,1,26,45,85,40,32,100,58,2]","155.1"
"350","562","4","6","1","50","1","1562238722","1562238591","102","[64,85,70]","315"
"351","527","4","6","1","11","1","1562238802","1562238591","102","[18,87,35,38,73,94]","315"
"352","590","4","6","1","53","1","1562238797","1562238591","102","[94,79,95,34,66,35,52]","315"
"353","533","4","6","1","94","1","1562238746","1562238591","102","[37,45,73,53]","315"
"354","526","4","6","1","39","1","1562238801","1562238591","102","[44,3,32,45,71]","708.4"
"355","591","4","6","1","4","1","1562238742","1562238591","102","[73,45,97,5,33]","315"
"356","521","4","6","1","51","1","1562238802","1562238591","102","[100,76,82,98,66,95,30,2,53,75,20,65,12]","235"
"357","502","4","6","1","98","1","1562238610","1562238591","102","[83,35,57,87,78,85,90,74,71,46]","474.2"
"358","586","4","6","1","33","1","1562238801","1562238591","102","[64,88,15,66,44,100,1,14,19,77,63,52,82,73,8,57,72,68,51,70,61,60,4,40,71,47,98,42,90,31,46,87,78,26,12,37,91]","155.1"
"359","515","4","6","1","89","1","1562238763","1562238591","102","[70,76,93]","235"
"360","505","4","6","1","5","1","1562238800","1562238591","102","[72,98,74,37,76,16,88,71,68,26,80,27,45,82,52,69,56,78,95,62,51,65,10,12,4,92,15,29,40,20,25,97,11,57,8,14,86,75,63,77,90,87,55,44,39,36,46,83,31,3,28,84,41,9,1,99,91]","-172.5"
"361","545","4","6","1","61","1","1562238799","1562238591","102","[48,82,60,57,89,28,43,26,21]","235"
"362","536","4","6","1","76","1","1562238800","1562238591","102","[15,49,89,95,62]","315"
"363","548","4","6","1","81","1","1562238752","1562238591","102","[82,66,35,89,79,38,76,49,6,10,23,17,18,21,96,95,73,53,14,8,54]","235"
"364","520","4","6","1","96","1","1562238801","1562238591","102","[24,28,18,54,73,56]","235"
"365","561","4","6","1","19","1","1562238801","1562238591","102","[8,88,10,95,32,54,82,9,22,58,65]","235"
"366","538","4","6","1","36","1","1562238796","1562238591","102","[41,8,77,53]","315"
"367","554","4","6","1","90","1","1562238802","1562238591","102","[88,77,76,64,45,54,24,47,85,98,31]","315"
"368","540","4","6","1","59","1","1562238789","1562238591","102","[54,29,82]","315"
"369","557","4","6","1","34","1","1562238799","1562238591","102","[8,49,100,84,6,69,47,72,89,13,25,56,35,58,61]","315"
"370","596","4","6","1","86","1","1562238707","1562238591","102","[97,74,59,21,23,48]","315"
"371","598","4","6","1","56","1","1562238799","1562238591","102","[15,98,8,17,48,94,21,82,59,33,84,45,96,73,72,34]","155.1"
"372","508","4","6","1","64","1","1562238796","1562238591","102","[97,51,88,38]","315"
"373","584","4","6","1","58","1","1562238620","1562238591","102","[35,99,22]","554.2"
"374","525","4","6","1","24","1","1562238801","1562238591","102","[100,85,99,8,69,83]","235"
"375","565","4","6","1","3","1","1562238802","1562238591","102","[46,39,100,18,66]","554.2"
"376","544","4","6","1","7","1","1562238802","1562238591","102","[82,40,25,62,84,28,54]","235"
"377","574","4","6","1","9","1","1562238802","1562238591","102","[46,91,82,32,98,30,86,45,8,3,69,96,54,1,66,34,56,48,94,23,22,100]","235"
"378","517","4","6","1","27","1","1562238802","1562238591","102","[17,88,85,1,45,5,55,54]","235"
"379","514","4","6","1","45","1","1562238802","1562238591","102","[82,48,24,58,97,19,17,73,6,25,13,29,21,79,10,2,26,40,30,12,66,95,50,85,61,31,96,71,98,46,32,39,3,37,8,93,51,81,54]","165.1"
"380","564","4","6","1","97","1","1562238638","1562238591","102","[25,64,41,88]","235"
"381","546","4","6","1","18","1","1562238778","1562238591","102","[100,47,59,23,53,82,57,20,14,11]","315"
"382","530","4","6","1","42","1","1562238790","1562238591","102","[23,9,55,68,31,85,28,97,70]","315"
"383","580","4","6","1","87","1","1562238797","1562238591","102","[77,85,11,96,90,37,10,98,5]","155.1"
"384","542","4","6","1","67","1","1562238796","1562238591","102","[62,5,84]","170.1"
"385","588","4","6","1","49","1","1562238792","1562238591","102","[88,45,22,23,6]","315"
"386","595","4","6","1","48","1","1562238800","1562238591","102","[9,54,86,62,58,99,69,72,95,53,23,50,35,73,65,61]","-85"
"387","571","4","6","1","68","1","1562238770","1562238591","102","[72,15,5,42,81,94,24,9,69,92,80,8,12,33,16,57,60]","75"
"388","524","4","6","1","1","1","1562238800","1562238591","102","[80,18,45,95,62,54,5]","315"
"389","534","4","6","1","74","1","1562238762","1562238591","102","[36,28,92,62]","170.1"
"390","566","4","6","1","21","1","1562238774","1562238591","102","[8,84,76,59,61,95,56,48,66]","315"
"391","581","4","6","1","23","1","1562238795","1562238591","102","[1,8,49,76,17,84,2,53,21,79,73,97,66,48,86,52,95,19,82]","155.1"
"392","506","4","6","1","62","1","1562238799","1562238591","102","[92,78,17,76,95,7,64,6,91,1,99,98,47,74,65,13,67,88,3,25,81,40,33,20,79,93,5,30,34,69,45,82,24]","441.7"
"393","570","4","6","1","84","1","1562238802","1562238591","102","[96,28,38,67]","170.1"
"394","516","4","6","1","55","1","1562238797","1562238591","102","[36,79,82,98,31,33,28,69,91,45,88,19,61,54,6,27,94,73,49,34,56,21,14,8]","235"
"395","507","4","6","1","80","1","1562238799","1562238591","102","[33,62,82,5,45]","244.2"
"396","593","4","6","1","79","1","1562238797","1562238591","102","[73,55]","315"
"397","512","4","6","1","30","1","1562238791","1562238591","102","[18,47,2,10,52,66,54,9]","155.1"
"398","585","4","6","1","41","1","1562238799","1562238591","102","[97,36,29,38,69]","155.1"
"399","501","4","6","1","57","1","1562238784","1562238591","102","[21,60,82,52,27,5,45]","244.2"
"400","504","4","6","1","2","1","1562238801","1562238591","102","[1,22,28,34,29,3,53,65,30,96,11,79,54]","235"
"401","537","5","6","1","61","1","1562239304","1562239018","211","[81,44,8,56,4,5]","230.1"
"402","530","5","6","1","14","1","1562239313","1562239018","211","[72,98,58,26,30,13,8,56,28,84,7]","545.7"
"403","551","5","6","1","63","1","1562239301","1562239018","211","[57,95,11,44,32,4,77]","310"
"404","599","5","6","1","76","1","1562239308","1562239018","211","[46,48,100,21,58,38,8,54,41,97,91,96,53,75,15,37,22,39,19]","310"
"405","572","5","6","1","3","1","1562239313","1562239018","211","[100,28,47]","310"
"406","570","5","6","1","10","1","1562239310","1562239018","211","[99,53]","310"
"407","600","5","6","1","19","1","1562239298","1562239018","211","[50,6,64,83,95,73,68]","239.1"
"408","527","5","6","1","22","1","1562239280","1562239018","211","[76,70]","310"
"409","553","5","6","1","42","1","1562239299","1562239018","211","[96,62,67]","310"
"410","558","5","6","1","33","1","1562239278","1562239018","211","[28,84]","310"
"411","568","5","6","1","84","1","1562239303","1562239018","211","[63,6,60,73,14,89,11,94,20,83,28,2,21,67,29,16,87,8,75,70,57,4,45,43,33,18,88,22]","-423.6"
"412","574","5","6","1","72","1","1562239312","1562239018","211","[5,82,38,8,53,6,34,86,85,97,51,36,10,94,100,98,15,87,76,71,19]","310"
"413","595","5","6","1","46","1","1562239310","1562239018","211","[82,58,41,87,33,74,95,37,25,78]","400.5"
"414","503","5","6","1","44","1","1562239312","1562239018","211","[76,67,26,77,20,38,37,35,93,88,32,55,92,95,91,13,60,24,86,63,85,49,8,83]","230.1"
"415","547","5","6","1","92","1","1562239136","1562239018","211","[73,79]","310"
"416","575","5","6","1","24","1","1562239308","1562239018","211","[8,27,35]","310"
"417","535","5","6","1","35","1","1562239308","1562239018","211","[49,26,100,24,78,23,93,8,89,77,94,28,86,38,63,44,30,29]","-90"
"418","594","5","6","1","67","1","1562239312","1562239018","211","[24,57,38,97,29,6,40,1,77,95,54,11,47,64,25,5,32,27,94]","163.5"
"419","555","5","6","1","85","1","1562239308","1562239018","211","[67,86,13,94,37]","310"
"420","521","5","6","1","36","1","1562239309","1562239018","211","[7,49,51,88,29,53,83,23,10,12,62,4]","230.1"
"421","536","5","6","1","59","1","1562239306","1562239018","211","[57,54,7,51,23,77,38]","779.7"
"422","519","5","6","1","88","1","1562239286","1562239018","211","[2,74,68]","310"
"423","513","5","6","1","48","1","1562239312","1562239018","211","[74,10,18,25,98,63,67,29,91,15,56,75,82,65,28,12,53,96,26]","70"
"424","550","5","6","1","29","1","1562239301","1562239018","211","[76,84,1,11,70,26,23,35,46,25,42,68]","150"
"425","567","5","6","1","32","1","1562239262","1562239018","211","[14,5,11,83,25]","310"
"426","540","5","6","1","1","1","1562239311","1562239018","211","[24,65,15,6]","310"
"427","583","5","6","1","25","1","1562239312","1562239018","211","[38,97,59,54,77,46,100,53,4,88,70,96,5]","163.5"
"428","591","5","6","1","55","1","1562239307","1562239018","211","[72,63,28,44]","310"
"429","596","5","6","1","41","1","1562239301","1562239018","211","[37,97,58,21,54,25,56]","239.1"
"430","532","5","6","1","13","1","1562239311","1562239018","211","[53,56,18,49,68,85,40,66]","310"
"431","569","5","6","1","40","1","1562239313","1562239018","211","[56,54,5,73,41]","230.1"
"432","576","5","6","1","65","1","1562239312","1562239018","211","[1,85,60,13,86,23,94,79,48]","150"
"433","577","5","6","1","68","1","1562239311","1562239018","211","[37,58,72,21,74,31,49,35,10,9,67,59,86,55,70,100,88,82,99,76,50,64,47,97,28]","70"
"434","515","5","6","1","39","1","1562239281","1562239018","211","[97,25,54,13,16]","310"
"435","539","5","6","1","77","1","1562239312","1562239018","211","[100,93,55,57,8,59,49]","310"
"436","560","5","6","1","15","1","1562239277","1562239018","211","[53,58,76,99,21]","230.1"
"437","563","5","6","1","82","1","1562239288","1562239018","211","[13,23,69,76,84,28,70]","310"
"438","523","5","6","1","51","1","1562239288","1562239018","211","[61,8,36,59,94]","310"
"439","552","5","6","1","58","1","1562239308","1562239018","211","[64,77,54,24,59,10,27,98,43,97,48,52,82,31,50]","310"
"440","510","5","6","1","56","1","1562239305","1562239018","211","[8,100,1,6,17,79,95,42,63,62,91,69,26,92,54,41,21,87,44,40,61]","305.7"
"441","585","5","6","1","99","1","1562239301","1562239018","211","[67,7,76,43,70,10,15]","230.1"
"442","544","5","6","1","18","1","1562239309","1562239018","211","[26,94,43,28,20,73,76,59,84,60]","230.1"
"443","542","5","6","1","75","1","1562239300","1562239018","211","[72,28,84]","310"
"444","541","5","6","1","27","1","1562239301","1562239018","211","[49,82,38,25,63,28,24,96]","310"
"445","578","5","6","1","43","1","1562239313","1562239018","211","[70,98,1,84,56,31,7,8]","230.1"
"446","509","5","6","1","96","1","1562239310","1562239018","211","[8,48,100,58,42,52,31,78,28,23]","70"
"447","520","5","6","1","45","1","1562239311","1562239018","211","[49,38,5,56,70,84]","310"
"448","502","5","6","1","89","1","1562239034","1562239018","211","[83,57,78,50,84,79,77,75,64,21,26]","230.1"
"449","592","5","6","1","49","1","1562239300","1562239018","211","[35,25,74,46,17,21,51,93,67,8,77]","310"
"450","584","5","6","1","98","1","1562239275","1562239018","211","[71,100,38]","310"
"451","598","5","6","1","31","1","1562239312","1562239018","211","[72,98,27,67,42,48,26,68,47,10,15,76,58,28,43,32,5,92]","150"
"452","580","5","6","1","79","1","1562239311","1562239018","211","[77,92,95,86,12,65,91,58,68,56]","70"
"453","549","5","6","1","23","1","1562239313","1562239018","211","[17,8,15,88,49,60,73,42,89,41,93,53,68,43,25,74,13,4,91,32,87,18,9,96,5,67,44,94,80,30,26,3]","230.1"
"454","545","5","6","1","53","1","1562239282","1562239018","211","[97,59,24,18,47,29,75,71,5,100,48,74,30,98,10]","310"
"455","587","5","6","1","30","1","1562239313","1562239018","211","[76,16,95,17,72,93,55,59,1,15,84,90,28]","310"
"456","526","5","6","1","80","1","1562239312","1562239018","211","[74,12,23,3]","230.1"
"457","543","5","6","1","91","1","1562239313","1562239018","211","[26,75,29,56,86,79,61]","310"
"458","579","5","6","1","74","1","1562239274","1562239018","211","[89,76,77,90,29,52,80]","230.1"
"459","534","5","6","1","17","1","1562239298","1562239018","211","[44,67,37,64,23]","310"
"460","582","5","6","1","87","1","1562239312","1562239018","211","[84,73,28]","310"
"461","562","5","6","1","71","1","1562239122","1562239018","211","[98,73]","310"
"462","512","5","6","1","12","1","1562239306","1562239018","211","[41,11,29,97,56,72,90,80,23]","310"
"463","518","5","6","1","26","1","1562239312","1562239018","211","[8,17,16,15,84,75,28,48]","310"
"464","548","5","6","1","94","1","1562239310","1562239018","211","[97,6,14,58,20,60,49,90,32,46,17,8,13,25]","0"
"465","528","5","6","1","93","1","1562239150","1562239018","211","[60,46,35]","310"
"466","590","5","6","1","5","1","1562239311","1562239018","211","[32,81,61,85,8,4]","545.7"
"467","561","5","6","1","8","1","1562239312","1562239018","211","[100,6,27,99,68,40,13,1,25,84,57]","161.6"
"468","529","5","6","1","34","1","1562239312","1562239018","211","[73,72,28,84]","230.1"
"469","559","5","6","1","86","1","1562239313","1562239018","211","[76,56,15,19,1,55,57,59,43,63,33,74,2,60,8,49,37,65,18,28,35]","230.1"
"470","531","5","6","1","78","1","1562239313","1562239018","211","[69,29,38,39,100,42,53,18,13,1,94,58,30,67,37,89]","310"
"471","586","5","6","1","73","1","1562239312","1562239018","211","[76,63,15,36,92,47,74,72,44,85,67,40,66,17,8,71,86,10,69,26,34,56,81,29,97,33,83,87,11,2,43,19,90,25,24,82,30,64,3,75,16,57,89,18,55,93]","65.7"
"472","522","5","6","1","11","1","1562239312","1562239018","211","[54,46,84,86,52,53,29,94,12,50,68]","230.1"
"473","507","5","6","1","97","1","1562239187","1562239018","211","[39,70]","310"
"474","524","5","6","1","57","1","1562239311","1562239018","211","[97,6,56,75,7,8,26,84,53,70,17,16]","161.6"
"475","566","5","6","1","95","1","1562239309","1562239018","211","[79,100,68,63]","310"
"476","505","5","6","1","28","1","1562239307","1562239018","211","[98,18,27,32,25,37,80,73,91,75,17,16,97,19,90,10,6,24,100,54,14,84,55,64,4,38,94,2,70,30,36,93,35,49,68,69,26,44,31,33,29,86,1,79,92,96,3,76,39,5,99,43,12,58,22,48,82,7,77,85,63,42,62,9,20,78,23,88,53,34,72,71]","-1370"
"477","508","5","6","1","83","1","1562239308","1562239018","211","[94,56,6,7,32,21,84]","310"
"478","571","5","6","1","37","1","1562239294","1562239018","211","[58,46,38,71,78,100,97,26,17,7,90,25,27,14,67,77,85,51]","699.7"
"479","533","5","6","1","50","1","1562239311","1562239018","211","[8,25,86,67,7,72,68,70,21]","230.1"
"480","511","5","6","1","90","1","1562239301","1562239018","211","[64,53,29,67,38,9,75,20,30,74,28]","230.1"
"481","525","5","6","1","9","1","1562239207","1562239018","211","[33,20,43,59,8,47,6]","545.7"
"482","546","5","6","1","21","1","1562239303","1562239018","211","[1,85,86,17,15,84,95,50,40]","230.1"
"483","504","5","6","1","47","1","1562239242","1562239018","211","[71,62,86,66,7,52,3,9,10]","70"
"484","556","5","6","1","4","1","1562239295","1562239018","211","[36,39,74,61,13,96,81]","310"
"485","501","5","6","1","2","1","1562239312","1562239018","211","[88,13,84,63,12]","310"
"486","517","5","6","1","64","1","1562239313","1562239018","211","[97,56,28,23,38,49,44,89]","310"
"487","516","5","6","1","6","1","1562239301","1562239018","211","[76,75,77,40,64,88,54,9,42,28,59,4,35,86,2,74,26,1,48,20]","230.1"
"488","557","5","6","1","38","1","1562239313","1562239018","211","[57,82,40,100,97,33,99,10,39,21,63,94,46,59,23,67]","400.5"
"489","593","5","6","1","20","1","1562239280","1562239018","211","[3,67,9]","239.1"
"490","597","5","6","1","16","1","1562239313","1562239018","211","[49,97,100,39,64,6,7,25,19,41,28,70,67,38,84,77,74,3,11,43,46,17,87,73,29,37]","70"
"491","589","5","6","1","69","1","1562239309","1562239018","211","[26,28,70,84,73]","230.1"
"492","588","5","6","1","52","1","1562239313","1562239018","211","[46,37,67,29,82,100,62,13,58,96,74,47,42]","150"
"493","565","5","6","1","66","1","1562239309","1562239018","211","[13,47,29,52,10,94,4]","310"
"494","564","5","6","1","60","1","1562239100","1562239018","211","[76,84,93,77]","310"
"495","581","5","6","1","100","1","1562239308","1562239018","211","[74,46,93,63,92,58,98,88,72,34,21,73,19]","310"
"496","573","5","6","1","54","1","1562239307","1562239018","211","[40,56]","310"
"497","514","5","6","1","7","1","1562239286","1562239018","211","[25,18,21,38,82,8,24,97,95,1,56,67,62,68,64,6,3,93,49,60,55,86,26,14,30,33,85,32,4]","239.1"
"498","554","5","6","1","81","1","1562239306","1562239018","211","[100,39,74,7,67,23,44,5,94,86,30]","239.1"
"499","538","5","6","1","62","1","1562239312","1562239018","211","[29,2,17,68,35,4,47,36,50,42]","230.1"
"500","506","5","6","1","70","1","1562239312","1562239018","211","[92,43,98,6,68,22,16,62,54,95,29,42,99,46,20,90,97,30,4,76,96,38,8,66,52,1,53,100,88,24,72,17,65,82,77,19,58,48,84,75,89,2,50,45,69,61,3]","-489.9"
"501","527","6","6","1","11","1","1562239767","1562239445","295","[65,26,82,42,30,33,68,44]","311.2"
"502","599","6","6","1","94","1","1562239762","1562239445","295","[8,1,58,84,17,26,93,42,7,48,87,75,40,24,18,31,6,70,41,9,99]","231.2"
"503","587","6","6","1","7","1","1562239763","1562239445","295","[1,100,82,75,74,20,59,73,37]","311.2"
"504","572","6","6","1","71","1","1562239767","1562239445","295","[63,42,25,6,75,60]","311.2"
"505","535","6","6","1","28","1","1562239753","1562239445","295","[64,80,24,72,82,38,56,15,87,25,45,17,81,33,96,57,52,30,55,79,94,1,4,73]","-88.8"
"506","575","6","6","1","50","1","1562239754","1562239445","295","[100,91]","311.2"
"507","574","6","6","1","37","1","1562239768","1562239445","295","[1,32,93,6,52,51,96,77,17,47,82,25,100,40,90,7,10,13,42,61,38,60,5,36,67,24,58,84,69,75,49,20]","311.2"
"508","521","6","6","1","56","1","1562239760","1562239445","295","[72,25,18,10,15,4,11,91,86,96,42,87,69,65,3,26,82,70,100,35,55,67,5,1,48,80,47,45,41]","231.2"
"509","551","6","6","1","92","1","1562239745","1562239445","295","[17,48,75,74,40,94,42,34,13,54,82]","311.2"
"510","530","6","6","1","5","1","1562239728","1562239445","295","[26,98,54,69,80,2,75,32,73,85]","311.2"
"511","579","6","6","1","46","1","1562239749","1562239445","295","[86,45,8,51,36,99,41,13,85]","231.2"
"512","558","6","6","1","43","1","1562239767","1562239445","295","[72,20,57,73]","311.2"
"513","526","6","6","1","22","1","1562239758","1562239445","295","[67,72,44,82,34,65,96]","-8.8"
"514","508","6","6","1","78","1","1562239768","1562239445","295","[65,30,82,32,72,64,4,57,90,42]","231.2"
"515","542","6","6","1","63","1","1562239766","1562239445","295","[73,23]","311.2"
"516","531","6","6","1","86","1","1562239759","1562239445","295","[1,96,42,99,69,31,46]","311.2"
"517","569","6","6","1","59","1","1562239757","1562239445","295","[40,20,9,35,80]","311.2"
"518","549","6","6","1","4","1","1562239763","1562239445","295","[58,80,88,17,57,86,42,91,28,32,19,67,7,46,60,85,77,5,13,84,24,52,75,43,90,98,26,36,27,93]","231.2"
"519","547","6","6","1","33","1","1562239764","1562239445","295","[21,28]","311.2"
"520","559","6","6","1","35","1","1562239751","1562239445","295","[43,44,73,37,85]","241.1"
"521","563","6","6","1","1","1","1562239768","1562239445","295","[72,98,73]","241.1"
"522","513","6","6","1","36","1","1562239762","1562239445","295","[98,72,25,74,58,93,87,82,91,38,23,52,21,51,86,84,27,62,24,26]","1089.1"
"523","597","6","6","1","20","1","1562239765","1562239445","295","[1,16,59,25,71,17,13,57,3,37,82,81,38,19,39,77,35,47,51,41,8,52,29,24,11,66]","729.1"
"524","537","6","6","1","74","1","1562239749","1562239445","295","[1,48,75,30,54,82]","311.2"
"525","540","6","6","1","31","1","1562239758","1562239445","295","[6,30,59,82,15,69,3,54,87,60,19,65,77,94]","231.2"
"526","560","6","6","1","40","1","1562239768","1562239445","295","[17,26,71,7,39,42,92]","231.2"
"527","578","6","6","1","27","1","1562239747","1562239445","295","[36,56,17,96,4,81]","231.2"
"528","577","6","6","1","85","1","1562239765","1562239445","295","[39,62,60,82,26,31,25,33,1,99,46,93,100,57,79,17,37,7,77,19,86,95,84,52,49,56,83]","311.2"
"529","555","6","6","1","53","1","1562239768","1562239445","295","[2,66]","311.2"
"530","520","6","6","1","49","1","1562239768","1562239445","295","[72,75,4,74,29,96,81,65,44,76,57,62,85]","231.2"
"531","594","6","6","1","66","1","1562239763","1562239445","295","[84,15,72,50,25,88,68,45,40,53,11,60,95,77,19,69,83,56,26,44,75,79,80,64,76]","231.2"
"532","524","6","6","1","8","1","1562239768","1562239445","295","[73,68,93,74,30,67]","231.2"
"533","583","6","6","1","88","1","1562239759","1562239445","295","[97,70,30,51]","240.2"
"534","517","6","6","1","62","1","1562239766","1562239445","295","[42,82,26,77,76,96,49,97]","311.2"
"535","511","6","6","1","13","1","1562239768","1562239445","295","[38,80,94,87,82,51,96,16,75]","311.2"
"536","503","6","6","1","57","1","1562239768","1562239445","295","[72,76,46,33,8,10,64,21,71,45,70,82,55,92,48,43,38,61,39,1,78,54,16,96,40,42,67,98,87,18,32,51,4]","-88.8"
"537","589","6","6","1","55","1","1562239747","1562239445","295","[36,48,15,93,73,28]","311.2"
"538","536","6","6","1","17","1","1562239764","1562239445","295","[45,60,65,74,66,19,11,71,68,44]","240.2"
"539","588","6","6","1","6","1","1562239766","1562239445","295","[72,79,40,35,36,4,30,31,29,95]","311.2"
"540","593","6","6","1","87","1","1562239755","1562239445","295","[62,9,74,70,13]","231.2"
"541","573","6","6","1","93","1","1562239768","1562239445","295","[1,100,57,42,69,19,23,82,52]","282.6"
"542","550","6","6","1","58","1","1562239750","1562239445","295","[85,20,80,52,79,56]","240.2"
"543","523","6","6","1","84","1","1562239768","1562239445","295","[1,57,36,93,69,96,60]","231.2"
"544","598","6","6","1","64","1","1562239766","1562239445","295","[98,88,18,6,30,35,87,72]","311.2"
"545","567","6","6","1","41","1","1562239731","1562239445","295","[37,52,36,56,4,75,6,85,46]","311.2"
"546","541","6","6","1","39","1","1562239746","1562239445","295","[80,40,94,4,34]","311.2"
"547","556","6","6","1","9","1","1562239768","1562239445","295","[7,31,69,82,8,33,12,100,46,87,18,52,4,73,94]","231.2"
"548","568","6","6","1","79","1","1562239764","1562239445","295","[57,75,24,10,55,82,26,80,36,2,74,28,58,97,18,1,20,59,37,30,53,83,4]","468"
"549","596","6","6","1","38","1","1562239757","1562239445","295","[15,24,36]","405"
"550","580","6","6","1","97","1","1562239768","1562239445","295","[10,35,51,62,74,96,30,58,70]","231.2"
"551","539","6","6","1","25","1","1562239765","1562239445","295","[35,70,18,71,83,74,32]","311.2"
"552","532","6","6","1","32","1","1562239763","1562239445","295","[25,98,76,58,93,82,87,39,45,38,43,62,48,51,81,69]","231.2"
"553","600","6","6","1","24","1","1562239762","1562239445","295","[17,57,91,75,96,85,76,65,64,38,54]","165.5"
"554","501","6","6","1","47","1","1562239768","1562239445","295","[4,3,56,68,14,70,10,58,65]","311.2"
"555","509","6","6","1","16","1","1562239757","1562239445","295","[1,80,54,75,4,56,51,57,52,96,85,5]","311.2"
"556","552","6","6","1","52","1","1562239757","1562239445","295","[80,46,1,45,38,93,19,71,95,8,20,3,67]","594.1"
"557","586","6","6","1","80","1","1562239760","1562239445","295","[75,30,90,89,64,45,55,92,85,59,1,48,98,35,23]","71.2"
"558","553","6","6","1","89","1","1562239767","1562239445","295","[98,81,82,51,80,30]","231.2"
"559","525","6","6","1","3","1","1562239624","1562239445","295","[47,20,18,51,17,19,69]","311.2"
"560","510","6","6","1","54","1","1562239766","1562239445","295","[100,48,59,40,1,94,42,74,90,96,34,4,13,92,98,57,30]","71.2"
"561","519","6","6","1","98","1","1562239756","1562239445","295","[36,32]","311.2"
"562","544","6","6","1","82","1","1562239767","1562239445","295","[26,94,16,74,22,24,98]","311.2"
"563","529","6","6","1","34","1","1562239768","1562239445","295","[39,64,90,30,96]","231.2"
"564","516","6","6","1","75","1","1562239763","1562239445","295","[15,39,36,52,73,88,100,40,10,23,93,51,3,13,96,43,18,80]","231.2"
"565","528","6","6","1","26","1","1562239556","1562239445","295","[1,72,38,61,75,48,36,43,12,76,41]","405"
"566","562","6","6","1","15","1","1562239756","1562239445","295","[28,64,56]","311.2"
"567","570","6","6","1","19","1","1562239767","1562239445","295","[93]","119.4"
"568","592","6","6","1","42","1","1562239762","1562239445","295","[40,75,54,13,39,78,96,51,67,57,16,34]","151.2"
"569","590","6","6","1","70","1","1562239768","1562239445","295","[45,15,87,88,97]","548"
"570","515","6","6","1","76","1","1562239726","1562239445","295","[4,6,73,64,45]","311.2"
"571","522","6","6","1","23","1","1562239767","1562239445","295","[2,82,63,86,60,36]","231.2"
"572","581","6","6","1","60","1","1562239708","1562239445","295","[8,1,100,48,58,80,71,84,94,75,64,50,32]","311.2"
"573","507","6","6","1","48","1","1562239753","1562239445","295","[94,58,78,80]","311.2"
"574","543","6","6","1","68","1","1562239766","1562239445","295","[69,11,91,56,44,8]","231.2"
"575","505","6","6","1","73","1","1562239768","1562239445","295","[71,76,15,98,25,74,49,8,14,48,94,21,37,40,6,35,2,13,55,95,83,57,62,36,84,91,12,5,24,80,44,53,66,56,27,4,17,58,45,79,28,75,63,72,78,70,11,100,50,68,99,9,1,7,88,43,18,10,51]","-176.8"
"576","595","6","6","1","61","1","1562239632","1562239445","295","[1,26,60,13,34,94,65]","165.5"
"577","561","6","6","1","51","1","1562239763","1562239445","295","[8,61,94,18,30,35,64,15,79,89,78,82,81,76,16,31]","311.2"
"578","502","6","6","1","10","1","1562239513","1562239445","295","[79,80,18,97,51,64,7,36,89,84]","231.2"
"579","584","6","6","1","18","1","1562239739","1562239445","295","[15,10,13,82,80,64]","311.2"
"580","533","6","6","1","67","1","1562239718","1562239445","295","[48,84,22,75,65,8,70]","311.2"
"581","557","6","6","1","69","1","1562239765","1562239445","295","[82,17,26,42,99,32,47,6,19,85,91,50,94,77,12]","151.2"
"582","576","6","6","1","81","1","1562239763","1562239445","295","[28,20,48,1,9,55,15,35,13,7,59,57,88,70,87,75,64,17,27,38,56,82,97,10,58,67,22,4,98,90,16,62,80,72,49]","71.2"
"583","546","6","6","1","95","1","1562239767","1562239445","295","[6,62,94,69,23,4,66]","311.2"
"584","591","6","6","1","29","1","1562239760","1562239445","295","[96,81,44,20]","311.2"
"585","554","6","6","1","90","1","1562239765","1562239445","295","[40,34,57,39,78,96,75]","311.2"
"586","582","6","6","1","21","1","1562239768","1562239445","295","[73,33,57]","231.2"
"587","564","6","6","1","100","1","1562239458","1562239445","295","[71,50,14]","311.2"
"588","548","6","6","1","30","1","1562239764","1562239445","295","[84,58,75,1,47,18,16,45,76,81,10,72,59,9,34,89,54,60,96]","151.2"
"589","571","6","6","1","44","1","1562239768","1562239445","295","[17,64,6,95,4,40,75,81,96,72,11,68,66,56,13,22,46,48,29,7,94,25,65,60,34]","228.1"
"590","565","6","6","1","91","1","1562239764","1562239445","295","[99,84,50,69,18,58,12]","151.2"
"591","585","6","6","1","14","1","1562239708","1562239445","295","[100,73]","311.2"
"592","566","6","6","1","45","1","1562239761","1562239445","295","[100,76,82,80,61,37]","311.2"
"593","506","6","6","1","2","1","1562239764","1562239445","295","[72,37,5,36,10,23,75,79,56,96,87,100,64,77,51,39,40,92,54,53,88,32,83,82,30,21]","71.2"
"594","545","6","6","1","77","1","1562239765","1562239445","295","[52,65,36,69,94,31]","311.2"
"595","538","6","6","1","83","1","1562239767","1562239445","295","[96,52,45,70,86,9,33,88,68,100,17,97,30,73,2]","311.2"
"596","512","6","6","1","99","1","1562239767","1562239445","295","[36,42,65,58,93,51,86,96,95,12,91]","311.2"
"597","518","6","6","1","65","1","1562239767","1562239445","295","[71,3,28,59,43,75,92,13,82,4,74,38,60,32,22,84,44,98]","311.2"
"598","514","6","6","1","96","1","1562239767","1562239445","295","[8,58,1,71,52,26,55,84,17,3,15,4,35,59,7,76,48,70,51,36,80,82,79,9,41,20,81,95,85,94,64,67,43,74,92,18,32,98,39,40,61,30,22,65,53]","231.2"
"599","534","6","6","1","12","1","1562239765","1562239445","295","[4,91,83,69,77]","311.2"
"600","504","6","6","1","72","1","1562239765","1562239445","295","[61,81,86,65,4,29,73,22,77,96,42,87,64,62,92]","151.2"
