"id","id_subj","round","session","period","id_grp","grp","time","time_start","duration","links","payoff"
"1","2301","1","24","1","5","1","1581500779","1581500502","280","[72,8,38,76,75,29,49,33,32,43,92,18,42,80,26,16,11,58,94,50,66]","-118.5"
"2","2325","1","24","1","63","1","1581500781","1581500502","280","[71,65,86,18,34]","127.4"
"3","2394","1","24","1","14","1","1581500740","1581500502","280","[18,99,34]","61.1"
"4","2356","1","24","1","49","1","1581500779","1581500502","280","[33,39,62,23]","18.7"
"5","2388","1","24","1","42","1","1581500765","1581500502","280","[8,17,75,24,80,49,62,39,96,59,74,91,71,84,14,92,31,64,34,78,9,73,99,44]","-330.7"
"6","2373","1","24","1","41","1","1581500779","1581500502","280","[72,49,61,88,100]","102.5"
"7","2379","1","24","1","65","1","1581500778","1581500502","280","[34,98,69,24]","106.5"
"8","2349","1","24","1","38","1","1581500695","1581500502","280","[100,1,51,91]","152.2"
"9","2339","1","24","1","62","1","1581500780","1581500502","280","[8,1,48,85,80,100,91,56,93,29,19,96,14,35,65,71,88,22,92,45,41,42,49,72]","73.6"
"10","2338","1","24","1","39","1","1581500781","1581500502","280","[1,37,82,58,91,59,77,50,87,38,61,93,98,18,4,21,31,49]","141.3"
"11","2348","1","24","1","99","1","1581500753","1581500502","280","[78,81,34,62,41,32,93,87,92,33,14,42,94,43,5,98,3]","-113.3"
"12","2312","1","24","1","34","1","1581500781","1581500502","280","[55,100,85,99,43,47,41,57,19,32,35,22,69,18,29,65,94,51,25,95,40,74,30,79,80,42,92,96,21,64,14,63,62,72,33,56,5,88,91,46,23,68,38,4,84,86,67,7,58,36,66,15,9,98]","-103.3"
"13","2315","1","24","1","44","1","1581500762","1581500502","280","[84,31,81,73,18,91,66,42,92]","-99.3"
"14","2328","1","24","1","79","1","1581500772","1581500502","280","[85,9,80,74,61,21,49,45,67,37,22,1,40,18,100,57,11]","-104.9"
"15","2335","1","24","1","95","1","1581500780","1581500502","280","[1,34,47,77,2,100]","69.4"
"16","2346","1","24","1","53","1","1581500780","1581500502","280","[74,10,28,46,43,7,89,66,86,3,39,38,44,31,91,68,32,27,73,81,78,87,42]","-284"
"17","2347","1","24","1","24","1","1581500776","1581500502","280","[59,9,52,81,54,57,66,18,42,92,7,78,91,6,2,10,30,45,72,33,65,26]","-487.3"
"18","2323","1","24","1","67","1","1581500781","1581500502","280","[48,45,10,13,100,82,4,70]","30.2"
"19","2317","1","24","1","31","1","1581500781","1581500502","280","[79,17,82,37,39,55,75,58,77,38,43]","90.1"
"20","2332","1","24","1","58","1","1581500780","1581500502","280","[8,37,64,79,80,100,17,47,91,39,67,5,90,81,96,4,75,33,10,18,57,70,15,26,3,66,23,92,34,65,52,20,48,31]","-418.4"
"21","2340","1","24","1","36","1","1581500779","1581500502","280","[100,17,9,8,13,76]","113.4"
"22","2311","1","24","1","70","1","1581500769","1581500502","280","[76,31,58,91,81,87,85,8,10,4,67,39,59,61,84,97,75,37,82]","-106.4"
"23","2314","1","24","1","30","1","1581500782","1581500502","280","[74,4,96,90,37,66,18,47,11,16,88,34,2,1,52,71,24]","-368.7"
"24","2329","1","24","1","47","1","1581500779","1581500502","280","[1,85,17,59,46,16,4,19,32,67,21,34,49,62,75,82,30,52,18,20]","-140.2"
"25","2326","1","24","1","4","1","1581500782","1581500502","280","[19,74,37,76,8,61,22,39,17,49,84,93,9,80]","85"
"26","2305","1","24","1","8","1","1581500773","1581500502","280","[18,58,67,10,39,28,7,57,100,66,3,93]","-270.4"
"27","2316","1","24","1","68","1","1581500767","1581500502","280","[10,17,37,82,53,45,86,38,71,73,46,23,89,28,34,18]","-199.6"
"28","2333","1","24","1","82","1","1581500782","1581500502","280","[98,36,75,38,27,49,86,93,12,95,77,29,20,74,4,100,13,9,8,10,60,58,15,83,70]","14.9"
"29","2313","1","24","1","91","1","1581500777","1581500502","280","[44,73,36,38,54,82,100,75,94,59,58,42,12,10,9,81,26,6,8,72]","-195"
"30","2336","1","24","1","13","1","1581500767","1581500502","280","[100,49,9,25,61,97,37]","258.4"
"31","2364","1","24","1","94","1","1581500779","1581500502","280","[5,65,66,51,91,52,69]","41.4"
"32","2352","1","24","1","18","1","1581500781","1581500502","280","[8,49,59,75,85,100,17,99,47,67,25,20,39,94,73,30,21,33,11,22,52,12,78,92,91,71,10,40,60,72,2,34,14,82,80,19,44,24,56,6,66,50,81,58,76,1,29,23,5,63,88,26,79,90,3,65,15,68,93,9]","1111.3"
"33","2387","1","24","1","16","1","1581500776","1581500502","280","[82,66,91,47,30]","29.2"
"34","2360","1","24","1","83","1","1581500761","1581500502","280","[84,71,44,54,81,34,93,90,6,15,72,28,82,86,61]","-65.9"
"35","2374","1","24","1","37","1","1581500777","1581500502","280","[61,6,13,87,38,27,82]","109.3"
"36","2390","1","24","1","92","1","1581500776","1581500502","280","[58,42,18,88,96,12,34,86,6,24,91,73,10,5]","-335.8"
"37","2397","1","24","1","3","1","1581500772","1581500502","280","[100,79,25,1,82,53,69,89,23,33,46,58,28,10,72,26,8,32,47,94,18,80,99,81,16,78,73]","-449"
"38","2362","1","24","1","60","1","1581500774","1581500502","280","[72,98,36,18,15,88,75,76,59,93,95,80,28]","265.5"
"39","2353","1","24","1","86","1","1581500752","1581500502","280","[4,90,12,7,98]","94"
"40","2358","1","24","1","72","1","1581500782","1581500502","280","[64,18,73,93,7,11,26,60,83,20,1,69,5,62,34,41,3,6,24,37,97,91]","-115.4"
"41","2366","1","24","1","48","1","1581500767","1581500502","280","[64,37,85,100,74,58,67,21,22,93,57,86,59,90,36,1,80]","-229.2"
"42","2399","1","24","1","97","1","1581500777","1581500502","280","[8,70,10,28,20,13,82,15,54,61,93,74,37,87,75,27,35,11,66,59,91,51,100,12,80,9,63,73,58,69,72,18]","206.5"
"43","2344","1","24","1","81","1","1581500777","1581500502","280","[71,28,94,32,83,17,46,58,70,99,90,2,56,85,24,75,84,64,31,76,12,44,3,73,40,10,16,18,91,6,33,27,42,9,87,34,82,53]","-395.8"
"44","2357","1","24","1","78","1","1581500777","1581500502","280","[73,71,46,18,9,99,15,39,75,90,44,100,6,48,66,98,79,24,27,42,70,20,69,23,3]","-372.2"
"45","2367","1","24","1","7","1","1581500782","1581500502","280","[80,26,10,8,11,53,86,47,24,52,72,34]","-327.7"
"46","2368","1","24","1","52","1","1581500767","1581500502","280","[48,17,100,37,75,79,24,85,67,18,80,21,64,47,30,11,58,20,94,7,60,40,86,74,57,19]","-465.4"
"47","2381","1","24","1","43","1","1581500779","1581500502","280","[99,46,31,62]","80.9"
"48","2380","1","24","1","22","1","1581500773","1581500502","280","[38,18,100,48,37,34,19,79,67,40,88,80,9]","-218.6"
"49","2392","1","24","1","40","1","1581500772","1581500502","280","[8,79,17,37,64,22,77,74,18,29,47,98,11,100,57,35,19,52]","-168.2"
"50","2395","1","24","1","21","1","1581500767","1581500502","280","[25,41,77,19,79,45,20,74,47,56,12,98,36,100]","16.4"
"51","2377","1","24","1","73","1","1581500780","1581500502","280","[48,80,79,37,1,96,8,9,10,28,91,78,86,18,89,72,51,63,12,71,81,75,33,66,82,69,68,31,46,92,23,16,3,44]","-595.1"
"52","2393","1","24","1","9","1","1581500778","1581500502","280","[8,10,12,4,84,2,90,91,85,18]","13.7"
"53","2386","1","24","1","2","1","1581500775","1581500502","280","[9,85,64,75,30,18,33,71,80,59,57,96,5,95,1]","-73.2"
"54","2398","1","24","1","57","1","1581500778","1581500502","280","[1,80,85,100,13,87,66,20,58,82,8,76]","86.3"
"55","2396","1","24","1","46","1","1581500782","1581500502","280","[88,71,78,81,53,50,33,3,23,73,63,38,68,69,55,62,89]","-303.8"
"56","2359","1","24","1","1","1","1581500777","1581500502","280","[37,95,67,6,86,90,19,20,47,100]","74.7"
"57","2330","1","24","1","64","1","1581500762","1581500502","280","[72,58,59,91,81,75,11,12,42,66,10,56,6,2,34,51,52,47,48,76,40,22,19,74]","-476.4"
"58","2384","1","24","1","28","1","1581500782","1581500502","280","[80,85,79,41,33,19,37,100,73,10,4,31,44,38,68,26,48,91]","-40.6"
"59","2400","1","24","1","69","1","1581500781","1581500502","280","[72,25,63,80,91,71,54,1,3,23,86,82,51,47,94,27,35,33,88,59,73,2,85,46,42,29,34,84,14,78,66]","-218.2"
"60","2370","1","24","1","100","1","1581500782","1581500502","280","[71,1,37,15,85,50,44,70,10,98]","122.3"
"61","2389","1","24","1","11","1","1581500768","1581500502","280","[64,32,37,85,26,5,47,21,80,52,7,100,57,59,18,48,97,30,19,40,72]","-465.1"
"62","2304","1","24","1","29","1","1581500781","1581500502","280","[49,75,100,37,43,80,96,34]","141.4"
"63","2319","1","24","1","90","1","1581500770","1581500502","280","[8,1,48,75,9,31,39,56,55,86,10,80,18,93,100]","70.9"
"64","2318","1","24","1","50","1","1581500746","1581500502","280","[61,37,32,84,82,89,46,63]","-52"
"65","2355","1","24","1","93","1","1581500774","1581500502","280","[36,44,74,57,85,8,13,86,34,48,18]","53"
"66","2363","1","24","1","55","1","1581500726","1581500502","280","[95,89]","136.2"
"67","2385","1","24","1","61","1","1581500782","1581500502","280","[10,50,27]","121.8"
"68","2378","1","24","1","12","1","1581500774","1581500502","280","[37,62,11,45,35,18,85,49,34,51,43,65,67,90,48]","137.8"
"69","2350","1","24","1","26","1","1581500772","1581500502","280","[100,10,7,11,4,58,42,82,72,80,3,18,28,91,5,24]","-521.3"
"70","2327","1","24","1","89","1","1581500775","1581500502","280","[36,73,82,51,65,53,88,77,50,37,68,98,100,71,55,29,27,32,3,46,23,63]","-60.7"
"71","2342","1","24","1","20","1","1581500772","1581500502","280","[38,49,25,85,47,75,59,10,72,93]","110"
"72","2337","1","24","1","17","1","1581500777","1581500502","280","[85,75,47,82,62,18,60]","123.2"
"73","2306","1","24","1","98","1","1581500756","1581500502","280","[40,87,66]","150.2"
"74","2371","1","24","1","35","1","1581500772","1581500502","280","[34,82,25,77,95,88]","178.4"
"75","2376","1","24","1","84","1","1581500760","1581500502","280","[83,44,70,82,39,59,29,50]","-18.8"
"76","2369","1","24","1","23","1","1581500782","1581500502","280","[8,85,75,49,90,9,70,86,56,31,82,71,33,58,18,73]","71.9"
"77","2383","1","24","1","80","1","1581500780","1581500502","280","[36,82,58,47,10,20,52,48,21,74,79,54,73,46,28,57,7,18,88,2,55,1,40,11,26,6,66,91,14,34,33,22,30,71,92,42,69,45,5,39,9,15]","-583.6"
"78","2354","1","24","1","27","1","1581500768","1581500502","280","[51,65,48,74,42,45,98,23,60,88,63,43,89,9,13,15,4,87,97,100,25,35]","60.6"
"79","2365","1","24","1","76","1","1581500774","1581500502","280","[71,82,11,60,74,87,61,57,56,15,36,17]","192.7"
"80","2372","1","24","1","6","1","1581500770","1581500502","280","[31,82,54,60,75,59,95,12,80,16,9,81,92,33,72,41,5]","-28.2"
"81","2361","1","24","1","45","1","1581500781","1581500502","280","[37,75,80,85,47,20,82,71,33,12]","29.4"
"82","2351","1","24","1","19","1","1581500774","1581500502","280","[20,47,49,57,18,32,22,34,33,40,76,64,54,60,9,11,52,16,1]","-240.1"
"83","2308","1","24","1","54","1","1581500779","1581500502","280","[100,17,37,79,83,97,36,76,20,93,8,59,15,13,70,74,19,85]","-37"
"84","2341","1","24","1","88","1","1581500781","1581500502","280","[71,93,36,98,25,77,50,6,56,61,87,32,38,47,18,28,66,41,63]","152.3"
"85","2302","1","24","1","75","1","1581500762","1581500502","280","[1,48,58,39,91,81,38]","35.2"
"86","2391","1","24","1","51","1","1581500782","1581500502","280","[25,74,79,8,17,86,31,94,49,41,14]","139.9"
"87","2382","1","24","1","33","1","1581500777","1581500502","280","[17,79,38,80,85,39,98,96,82,59,71,58,34,18]","-20.5"
"88","2375","1","24","1","74","1","1581500755","1581500502","280","[80,79,48,100,40,54,30,21,64]","-234.8"
"89","2343","1","24","1","85","1","1581500782","1581500502","280","[54,34,18]","88.5"
"90","2320","1","24","1","59","1","1581500764","1581500502","280","[36,51,12,39,13,97,37,58]","108.3"
"91","2303","1","24","1","96","1","1581500777","1581500502","280","[98,8,75,22,93,5,29,19,6,50,77,85,2,32]","23.7"
"92","2310","1","24","1","77","1","1581500502","1581500502","280","[]","0"
"93","2307","1","24","1","71","1","1581500780","1581500502","280","[82,36,25,11,75,18,45,64,60,2,6,66,68]","-55.3"
"94","2324","1","24","1","25","1","1581500779","1581500502","280","[85,17,1,34,62,18]","127.4"
"95","2309","1","24","1","66","1","1581500698","1581500502","280","[31,44,94,71,91,39,24,17,8,58,10,53,30,73,16,6,18,80,57,78,4,82,64,97]","-435.6"
"96","2331","1","24","1","87","1","1581500776","1581500502","280","[56,32,81,82,99]","95.2"
"97","2321","1","24","1","15","1","1581500782","1581500502","280","[70,77,19,50,97,83,58,18,34,78,27,82]","25.5"
"98","2345","1","24","1","56","1","1581500762","1581500502","280","[18]","197.7"
"99","2322","1","24","1","32","1","1581500770","1581500502","280","[96,4,77,5]","95.8"
"100","2334","1","24","1","10","1","1581500763","1581500502","280","[8,18,49,58,97,80,26,67,9,25,61,73,7,68,53,66,12,92,70,81]","-344.5"
"101","2397","2","24","1","1","1","1581501431","1581501138","280","[48,43,42,62,14,79,55,4,38,57,7,2,72,89,11,90,34,97,87,37,40]","-219.8"
"102","2399","2","24","1","75","1","1581501440","1581501138","280","[8,37,78,71,36,55,11,88,67,38,2,95,44,80,20,81,61,62,63,19,31,69,96,42,14,76,82,17,5,92,7,57,79,86,43,77,32,53,13,35,87,23,89,99,15,9,12,90,21,60,91,47,34,18,83,16,41,10,3,73,74,45,46,64,28,25,50,33,29,84,24,59,27,26,65,98,97,94,68,54,30,66,85,22,72,51,40]","4557"
"103","2369","2","24","1","10","1","1581501435","1581501138","280","[51,92,16,11,63,75,25]","62.2"
"104","2381","2","24","1","30","1","1581501439","1581501138","280","[41,51,95]","106.3"
"105","2360","2","24","1","22","1","1581501432","1581501138","280","[8,100,97,24,43,80,51,14,15,99,21,83,9,12,62,17,27]","9.3"
"106","2352","2","24","1","14","1","1581501432","1581501138","280","[8,18,80,47,61,69,9,24,15,75,2,1,85,83,68,94,74,97,52,65,73,3,62]","131.9"
"107","2336","2","24","1","43","1","1581501400","1581501138","280","[17,47,59,75]","210"
"108","2380","2","24","1","32","1","1581501435","1581501138","280","[23,37,48,67,75,10,2,11,21,49,95,51,69,26,89,17,80,57]","-27.2"
"109","2364","2","24","1","26","1","1581501426","1581501138","280","[19,48]","104.6"
"110","2385","2","24","1","99","1","1581501439","1581501138","280","[15,61,75]","353.7"
"111","2366","2","24","1","4","1","1581501384","1581501138","280","[29,1,7,37,48,40,70,88]","-142.1"
"112","2359","2","24","1","68","1","1581501435","1581501138","280","[17,80,76,98,21,50,47,60,94,3,71]","119.6"
"113","2391","2","24","1","85","1","1581501420","1581501138","280","[17,24,63,57,41]","153.4"
"114","2315","2","24","1","74","1","1581501438","1581501138","280","[46,38,90,43,94,95]","92.9"
"115","2365","2","24","1","44","1","1581501432","1581501138","280","[15,84,17,99,47,97,58,75,52,56,69,43,74,93,20,18,29]","269.6"
"116","2368","2","24","1","17","1","1581501435","1581501138","280","[8,18,79,9,69,24,67,37,39,7,63,61,100,14,36,22,13,65,20,80,75,89,25,29]","-185.9"
"117","2367","2","24","1","6","1","1581501434","1581501138","280","[57,80,27,85,12]","59"
"118","2382","2","24","1","76","1","1581501434","1581501138","280","[37,66,48,98,60,81,7,5,36,79,17,75]","-118.4"
"119","2398","2","24","1","97","1","1581501433","1581501138","280","[17,44,85,41,54]","80.5"
"120","2354","2","24","1","80","1","1581501432","1581501138","280","[43,75,17,61,29,26,73,60,47,91,51,57,85,18,30,6,15,9,16,92,45,2,8,27,78,41,70,40]","133.1"
"121","2394","2","24","1","71","1","1581501392","1581501138","280","[48,95,68]","212"
"122","2362","2","24","1","11","1","1581501437","1581501138","280","[75,36,7,91,1,40,45,5,63,81,76,68,53,89,39,37,25,56]","-225.8"
"123","2396","2","24","1","29","1","1581501434","1581501138","280","[80,90,34,9,79,4,56,96,85,52,27,2,41,75,39,45,100,62,44,8]","52"
"124","2363","2","24","1","84","1","1581501436","1581501138","280","[36,75]","132.5"
"125","2400","2","24","1","9","1","1581501439","1581501138","280","[8,100,80,47,71,14,37,90,3,83,33,5,17,15,53,70,7,18,41,16,4,92,27,63,12,36,76,67,57]","29.2"
"126","2349","2","24","1","61","1","1581501440","1581501138","280","[97,50,28,99]","146.2"
"127","2330","2","24","1","47","1","1581501203","1581501138","280","[51]","175"
"128","2383","2","24","1","46","1","1581501439","1581501138","280","[76,72,98,25,74,12,94,36,55,64,48,13,23,82,21,60,67,2,41,97,99,70,15,75,77,66,52,44,93,90,53,81,71,73,65,33,35,95]","75.9"
"129","2340","2","24","1","19","1","1581501420","1581501138","280","[26,25,45,21,92,70,81,95,35,68,30,44,75,9,40]","-23.5"
"130","2387","2","24","1","13","1","1581501439","1581501138","280","[75,46,33,96]","39.2"
"131","2357","2","24","1","35","1","1581501437","1581501138","280","[24,44,55,26,87,89,20,30,19,33,51,50,63]","104.5"
"132","2356","2","24","1","67","1","1581501412","1581501138","280","[75]","210"
"133","2384","2","24","1","18","1","1581501395","1581501138","280","[39]","142.5"
"134","2392","2","24","1","70","1","1581501434","1581501138","280","[24,80,63,46,19,42,7,56,93,84,85,99,59,26,97,9,94,43,74,4,65,15]","-152.8"
"135","2390","2","24","1","50","1","1581501375","1581501138","280","[48,51,75]","98.5"
"136","2353","2","24","1","52","1","1581501426","1581501138","280","[55,99,44,84]","155.2"
"137","2388","2","24","1","92","1","1581501431","1581501138","280","[36,19,89,21,80,75,86,51,73,95,38,96]","-130.6"
"138","2378","2","24","1","96","1","1581501439","1581501138","280","[44,83,60,75,90,80,78,48,98,61,13,20,67,81,92,87,28,95]","30.3"
"139","2374","2","24","1","12","1","1581501437","1581501138","280","[76,58,79,15,57,34,80,67]","153.4"
"140","2358","2","24","1","25","1","1581501438","1581501138","280","[51,19,46,38,48,45,87,86,40,89,82,2,23,17,58,41,75,13,16,11,39,4,5,53,24,8,10]","-364.8"
"141","2332","2","24","1","82","1","1581501428","1581501138","280","[71,49,94,51,68,33,37,50,20,39,59,60,1,78,2,62,81,5,58,55,67,99,61,96,84,11,48,72,25,75,53,17,46]","107"
"142","2379","2","24","1","95","1","1581501439","1581501138","280","[15,98,31,24,3,33,30,23,12,28,52,85,32,57,66,43,94,75,68,53,71,73]","264.6"
"143","2373","2","24","1","94","1","1581501207","1581501138","280","[46]","166.2"
"144","2376","2","24","1","73","1","1581501423","1581501138","280","[3,28]","149.4"
"145","2389","2","24","1","83","1","1581501433","1581501138","280","[100,99,9,57,20,41,17]","77.2"
"146","2395","2","24","1","66","1","1581501416","1581501138","280","[72,80,85,23,94,40,49]","33.9"
"147","2370","2","24","1","55","1","1581501439","1581501138","280","[15,80,89,3,26,77,78,36,98,38,94,74,66,73,46]","92.9"
"148","2386","2","24","1","8","1","1581501439","1581501138","280","[85,81,22,17,83,15,63,93,9,75,13,77,21,62]","-21.9"
"149","2377","2","24","1","58","1","1581501282","1581501138","280","[21,62,37,61,36,82]","101.5"
"150","2372","2","24","1","89","1","1581501439","1581501138","280","[25,15,65,57,11,91,18,58,7,5,37,16,1,62,2,99,45,97,44,22,61,47,49,85,23,24,30,33,50,48,95]","-154.4"
"151","2311","2","24","1","38","1","1581501439","1581501138","280","[24,16,75,81,71,68,98,20,60,73,46,59,50,86,35,74,87,44,90,93,95,55,52,3,43]","112.4"
"152","2309","2","24","1","39","1","1581501436","1581501138","280","[76,45,58,81,47,37,82,17,62,79,36,11,53,18,35,10,8,29,83,22,61]","-63.3"
"153","2328","2","24","1","79","1","1581501440","1581501138","280","[78,1,17,81,84,45,88,36,37,21,75,2,15,39,13,29,76,56,89,25]","-252.4"
"154","2355","2","24","1","24","1","1581501432","1581501138","280","[15,43,53,75,91,2]","210"
"155","2335","2","24","1","42","1","1581501437","1581501138","280","[70,89,75,53,76,24,36,13,59,49]","164.9"
"156","2375","2","24","1","77","1","1581501430","1581501138","280","[98,36,46,8,81,69,2,45,76,37,75]","-58.1"
"157","2306","2","24","1","86","1","1581501408","1581501138","280","[71,15,18,61,20,62,75,55]","210"
"158","2351","2","24","1","34","1","1581501431","1581501138","280","[98,97,85,58,54,90,29,9,80,1,78,96,75,36,68,93,55,56,31,87,7,53,40]","-73.5"
"159","2316","2","24","1","64","1","1581501416","1581501138","280","[46,36,75,72,59]","88.6"
"160","2393","2","24","1","7","1","1581501436","1581501138","280","[57,35,55,36,40,75,51,28,96,65,80,70,4,11,37,17,9,15,89,10,76]","-190.9"
"161","2319","2","24","1","81","1","1581501439","1581501138","280","[78,48,100,19,80,57,28,91,51,46,42,52]","49.4"
"162","2313","2","24","1","59","1","1581501439","1581501138","280","[24,9,85,42,70]","87.9"
"163","2327","2","24","1","93","1","1581501438","1581501138","280","[58,17,55,63,97,96,44,2,90,15,14,54,88]","12.6"
"164","2338","2","24","1","48","1","1581501439","1581501138","280","[62,65,86,69,50,52,73,87,44,71,32,90,56,28,60,82,94,43,41,18,12,47,66,67,68,26,96,61,38,23,51]","53.4"
"165","2361","2","24","1","27","1","1581501439","1581501138","280","[24,64,17,58,15,79,59,21,16,4,66,71,52,30,68,9,3,83,47,18,12,62,81,85,63,6,61,99]","71.1"
"166","2312","2","24","1","2","1","1581501439","1581501138","280","[9,59,90,15,97,50,68,30,4,41,83,18,75]","210"
"167","2302","2","24","1","63","1","1581501438","1581501138","280","[8,84,78,81,51,76,19,96,61,22,13,2,24]","38.5"
"168","2317","2","24","1","90","1","1581501436","1581501138","280","[89,99,58,29,34,52,55,23,66,12,85,47,41,65,3,71,73,27,31,97,59]","40.2"
"169","2304","2","24","1","62","1","1581501438","1581501138","280","[85,17,94,18,3,39,21,67,5,23,13,24,29,14]","27.6"
"170","2318","2","24","1","88","1","1581501402","1581501138","280","[71,8,1,58,79,17,75,37,93,80,2,61,36,76,4,15,34]","19.5"
"171","2301","2","24","1","60","1","1581501436","1581501138","280","[18,21,75,76]","132.5"
"172","2344","2","24","1","72","1","1581501438","1581501138","280","[82,5,46,48,1,74,59,64,45,38,71,66,68,52]","-113"
"173","2341","2","24","1","21","1","1581501440","1581501138","280","[18,15,17,97,85,3,50,33,19,75,53,87,32]","62.2"
"174","2347","2","24","1","45","1","1581501436","1581501138","280","[19,38,39,76,37,46,58,98,77,11,44,86,84,36,79,25,23,74,51,29,80,89,72]","-316.6"
"175","2350","2","24","1","20","1","1581501405","1581501138","280","[59,48,75,36]","132.5"
"176","2331","2","24","1","3","1","1581501434","1581501138","280","[18,1,99,57,52,95,16]","83.9"
"177","2339","2","24","1","16","1","1581501435","1581501138","280","[2,64,90,43,56,85,12,13,25,75,3]","163.9"
"178","2329","2","24","1","57","1","1581501433","1581501138","280","[59,76,43,17,71,85,77,15,56,6,47,12,27,18,65,75,84,99,63,24,78,80]","429.6"
"179","2342","2","24","1","33","1","1581501440","1581501138","280","[76,1,13,59,51,95]","42.2"
"180","2325","2","24","1","28","1","1581501398","1581501138","280","[55,52,33,73,95,75]","282.4"
"181","2314","2","24","1","49","1","1581501432","1581501138","280","[32,24,42,37,15,2,82,11,57,33,85,18,94,60,52,23,89,3,66,41,99,12,73,90,93]","-78.1"
"182","2320","2","24","1","41","1","1581501435","1581501138","280","[38,99,80]","168.9"
"183","2343","2","24","1","5","1","1581501414","1581501138","280","[18,47,75,15]","210"
"184","2310","2","24","1","37","1","1581501439","1581501138","280","[24,81,36,11,7,53,91,65,67,20,76,56,80,69]","-49.6"
"185","2345","2","24","1","36","1","1581501439","1581501138","280","[98,38,48,46,60,81,11,76,84,96,92,7,77,69,58,62,53,13,51,24,63,86,88,61,95,80,2,67,75,10,18,57,20,49,1]","-434.1"
"186","2303","2","24","1","51","1","1581501440","1581501138","280","[17,59,5,22,34,73,12,4,47,53,7,10,52,50,91,56,30,33,25,82,63,40,81,92,32,27,24,94,80,48,75,35]","206.4"
"187","2333","2","24","1","15","1","1581501437","1581501138","280","[18,79,59,58,43,83,42,47,91,62,11,61,97,85,80,65,77,7,84,4,76,16,20,17,67,52,70,87,13,37]","-38.2"
"188","2308","2","24","1","78","1","1581501440","1581501138","280","[75,66,85,53,44,84,1,37,45,63]","168"
"189","2322","2","24","1","65","1","1581501437","1581501138","280","[48,9,95,33]","138.9"
"190","2346","2","24","1","23","1","1581501439","1581501138","280","[18,35,94,75,82]","210"
"191","2337","2","24","1","53","1","1581501429","1581501138","280","[38,36,75,37,59]","86.3"
"192","2324","2","24","1","91","1","1581501431","1581501138","280","[60,55,51,75,30,87,40]","138.9"
"193","2348","2","24","1","54","1","1581501434","1581501138","280","[59,17,55,90,71,53,89,52,1,44,56,87,34,93,97,75,36,24,68,9]","86.9"
"194","2323","2","24","1","87","1","1581501420","1581501138","280","[75,36]","210"
"195","2326","2","24","1","98","1","1581501436","1581501138","280","[60,82,62,21,86,73,75,50,38]","133.4"
"196","2334","2","24","1","100","1","1581501433","1581501138","280","[24,15,83,43,42,61,37,22,62,3,2,29,97,93,20]","77.5"
"197","2305","2","24","1","31","1","1581501427","1581501138","280","[5,55,40,50,99,33,90,23,30]","94.4"
"198","2321","2","24","1","40","1","1581501439","1581501138","280","[93,18,31,63,59,34,57,47,4,52,81,51,36,7,66,25,75]","126.6"
"199","2371","2","24","1","56","1","1581501437","1581501138","280","[58,85,20,80,34,44,70,97,79,4,84,2,13,24,54,29,14,11,93,90]","-206.3"
"200","2307","2","24","1","69","1","1581501439","1581501138","280","[15,35,74,62,81,76,20,78,60,75,36]","132.5"
"201","2362","3","24","1","87","1","1581501658","1581501552","302","[98,91,79,80,47,64,23,28,49,18,76,53,99,9,7]","-176"
"202","2385","3","24","1","58","1","1581501648","1581501552","302","[23]","200.4"
"203","2339","3","24","1","96","1","1581501654","1581501552","302","[17,16,20,30,41,85,23,4]","439.2"
"204","2315","3","24","1","92","1","1581501658","1581501552","302","[1,24,74,58,23,39,64,8,11]","16.9"
"205","2343","3","24","1","77","1","1581501659","1581501552","302","[75,63,23]","200.4"
"206","2356","3","24","1","11","1","1581501652","1581501552","302","[23]","200.4"
"207","2383","3","24","1","91","1","1581501658","1581501552","302","[71,15,98,25,36,24,63,49,17,72,6,23,18,29,95,2]","14.3"
"208","2390","3","24","1","2","1","1581501626","1581501552","302","[98,23,49]","148.6"
"209","2347","3","24","1","22","1","1581501659","1581501552","302","[72,37,98,26,76,45,47,46,5,63,23,64,94,49,38,6,88,44,87]","56.6"
"210","2349","3","24","1","55","1","1581501607","1581501552","302","[8,48]","172.7"
"211","2367","3","24","1","97","1","1581501658","1581501552","302","[70,23,6,83,35]","-3.4"
"212","2365","3","24","1","9","1","1581501652","1581501552","302","[72,64,25,47,80,16,66,7,26,53,67,15,70,61,8,52,84,75,83]","-375"
"213","2382","3","24","1","33","1","1581501645","1581501552","302","[98,23,64,84,43,83]","-11.2"
"214","2309","3","24","1","66","1","1581501659","1581501552","302","[76,57,90,82,89,49,64,86,56]","56.1"
"215","2358","3","24","1","54","1","1581501650","1581501552","302","[85,20,24,94,4,51,32,3,5,46]","76"
"216","2306","3","24","1","59","1","1581501640","1581501552","302","[98,15,84,79,36,76,49]","119.9"
"217","2353","3","24","1","41","1","1581501648","1581501552","302","[50,96]","145.9"
"218","2369","3","24","1","17","1","1581501657","1581501552","302","[50,61,22,78,75,23]","15.1"
"219","2344","3","24","1","18","1","1581501657","1581501552","302","[98,48,10,78,29,99,83,13,65,30,95,41,85,50,62,34,88,55,44,90,91,87,74,53,73,56,60,23,49,94,27,21,7]","27.3"
"220","2372","3","24","1","32","1","1581501651","1581501552","302","[46,42,87,52,68,13,78,15]","73.8"
"221","2370","3","24","1","53","1","1581501649","1581501552","302","[36,63,25,55,10,45,85,75,58,11,24,82,23]","200.4"
"222","2373","3","24","1","16","1","1581501657","1581501552","302","[60,49]","123"
"223","2384","3","24","1","74","1","1581501653","1581501552","302","[94,76]","173.9"
"224","2391","3","24","1","88","1","1581501657","1581501552","302","[75,76,55,1,18,83]","46.8"
"225","2387","3","24","1","28","1","1581501658","1581501552","302","[64,49,6,7,1,40,15,23,39,87]","-131.2"
"226","2400","3","24","1","15","1","1581501657","1581501552","302","[80,75,76,26,47,17,94,53,29,84,13,52,18]","-104"
"227","2396","3","24","1","47","1","1581501656","1581501552","302","[72,9,45,15,78,87,43,53,7,22,62,76,26,57,42,38,49]","-294.4"
"228","2386","3","24","1","90","1","1581501658","1581501552","302","[66,56,23]","104.2"
"229","2352","3","24","1","76","1","1581501658","1581501552","302","[9,66,64,15,49,22,52,40,99,78,6,88,51,71,87,83,73,56,89,23,7,47,38,95,29]","-316.6"
"230","2345","3","24","1","6","1","1581501659","1581501552","302","[84,72,16,25,32,10,26,22,94,49,53,98,42,64,23,88,60,97,81,7,65,91,89,8,35,50,76,39,43,86,80,66,61,11,27,71,90,41,62]","-345.9"
"231","2392","3","24","1","19","1","1581501654","1581501552","302","[72,80,37,32,45,70,75,40,56]","37.2"
"232","2332","3","24","1","43","1","1581501643","1581501552","302","[25,1,99,83]","168"
"233","2398","3","24","1","1","1","1581501659","1581501552","302","[100,2,85,70,69,65,5]","44.2"
"234","2335","3","24","1","52","1","1581501659","1581501552","302","[84,83,9,32]","86.1"
"235","2328","3","24","1","70","1","1581501635","1581501552","302","[1,36,19,97,49,23,98,78,9,7,8,84]","22.3"
"236","2364","3","24","1","24","1","1581501641","1581501552","302","[92,64,20]","107.5"
"237","2337","3","24","1","80","1","1581501653","1581501552","302","[87,43,6]","103"
"238","2357","3","24","1","86","1","1581501651","1581501552","302","[36,71,74,57,80,66,90,43,88]","23.1"
"239","2304","3","24","1","3","1","1581501658","1581501552","302","[9,49,58,26,5,40,4,14]","183.2"
"240","2394","3","24","1","29","1","1581501652","1581501552","302","[23,18,76]","66.3"
"241","2341","3","24","1","99","1","1581501630","1581501552","302","[18,8,76,45,23,38]","-68.9"
"242","2360","3","24","1","61","1","1581501647","1581501552","302","[64,1,17,96,35,50,69,26,75,9]","-137.9"
"243","2314","3","24","1","60","1","1581501654","1581501552","302","[36,4,29,73,16,95,40,99,1,58,5,77,20,18,65,39,41,6,30,32,25]","-74.1"
"244","2381","3","24","1","34","1","1581501658","1581501552","302","[8,30,18,16]","115.2"
"245","2318","3","24","1","26","1","1581501654","1581501552","302","[8,22,35,51,6,38]","-101.7"
"246","2327","3","24","1","65","1","1581501656","1581501552","302","[1,48,75,60,18,30,59,85]","52.7"
"247","2312","3","24","1","45","1","1581501657","1581501552","302","[59,85,40,96,22,32,72]","167.9"
"248","2305","3","24","1","36","1","1581501594","1581501552","302","[49,86,60]","92.1"
"249","2363","3","24","1","79","1","1581501629","1581501552","302","[23,87]","129.9"
"250","2378","3","24","1","71","1","1581501658","1581501552","302","[86,53,64,77,57,25,23]","148.3"
"251","2310","3","24","1","27","1","1581501642","1581501552","302","[79,67,98,59,64,23,76,12,20]","54"
"252","2388","3","24","1","82","1","1581501588","1581501552","302","[75,19,63,23,10]","200.4"
"253","2325","3","24","1","64","1","1581501650","1581501552","302","[36,24,63,76,72,9,23,61,49,94,28,42,27,83,89,11,78,87,93,33,44,39,6,22,71,81,92,73,66,8,12]","-331.4"
"254","2340","3","24","1","94","1","1581501658","1581501552","302","[22,64,58,21,11,57,23,49,54,68,74,79,89,30,56,85,95,40,10,38,55,45,15,51,18,83,84]","-67.3"
"255","2331","3","24","1","72","1","1581501656","1581501552","302","[49,29,21,85,32,3]","183.2"
"256","2303","3","24","1","23","1","1581501659","1581501552","302","[72,15,76,64,58,79,97,82,67,71,51,7,93,22,94,33,41,99,87,81,32,29,12,77,73,46,70,45,20,92,56,90,42,40,2,91,6,53,85,8,30,74,4,96,35,63,78,100,18,57,62,16,95,48,36,25,11,17,75,37,55,61,28,27,59,52,9,68,84,44,5]","1613.9"
"257","2336","3","24","1","84","1","1581501659","1581501552","302","[9,77,43,59,81,44,15,83,94,33,65,8,23,52,78,22,40,49,68,51,99,29,7,28,6,67]","-350.6"
"258","2302","3","24","1","14","1","1581501560","1581501552","302","[8,49,100,38]","114.9"
"259","2324","3","24","1","100","1","1581501655","1581501552","302","[15,45,10,49,55,72,23,37,35]","95.6"
"260","2399","3","24","1","7","1","1581501657","1581501552","302","[72,37,23,98,3,67,6,10,47,76,58,36,11,9,51,70,88,42,39,83,77,63,84,87,8,22,16,15,38,34,95,48,12,13,94,28,5,91]","-659.6"
"261","2316","3","24","1","68","1","1581501647","1581501552","302","[8,98,49,23]","78.4"
"262","2307","3","24","1","89","1","1581501658","1581501552","302","[57,15,91,63,9,66,76,39,6,68,81]","-31"
"263","2342","3","24","1","78","1","1581501659","1581501552","302","[71,36,24,75,90,17,1,64,19,47,84,63,52,35,70,18,73,23,20,49,22,8,83,76,6,9,99,34,38,69,50,7]","-282.5"
"264","2319","3","24","1","42","1","1581501653","1581501552","302","[53,72,64,49,23,45,18]","74.9"
"265","2354","3","24","1","4","1","1581501657","1581501552","302","[63,44,95,30,5,39,26,11,54,24,41,96,10]","36.5"
"266","2348","3","24","1","51","1","1581501650","1581501552","302","[13,23,2,62,94,9,76,7,88,45,26,54,22,68,20,8,21,43,3,84]","-268.7"
"267","2321","3","24","1","49","1","1581501659","1581501552","302","[36,72,76,64,24,46,45,3,14,10,38,5,32,16,42,13,81,28,94,6,21,70,35,31,1,33,87,30,2,12,66,91,41,25,67,68,40,62,55,59,84]","524.8"
"268","2350","3","24","1","93","1","1581501656","1581501552","302","[23,64,83]","64.9"
"269","2320","3","24","1","48","1","1581501650","1581501552","302","[18]","172.2"
"270","2368","3","24","1","50","1","1581501650","1581501552","302","[48,58,37,82,94,61,6,11,96,20,35,69,31,26,8,47,78]","-66.8"
"271","2361","3","24","1","75","1","1581501651","1581501552","302","[79,78,74,85,24,68,96,26,1,35,73,59,9,17,61,43,50]","-54"
"272","2377","3","24","1","21","1","1581501648","1581501552","302","[8,94,45,83,69,49,18]","-102.1"
"273","2374","3","24","1","44","1","1581501654","1581501552","302","[64,28,23]","132.4"
"274","2326","3","24","1","35","1","1581501654","1581501552","302","[1,100,59,21,80,61,85,20,16,96,9,67,45,78,23,49]","106.4"
"275","2351","3","24","1","12","1","1581501647","1581501552","302","[98,27,23,6,81,7,64]","-18.7"
"276","2397","3","24","1","13","1","1581501659","1581501552","302","[98,51,75,18,49,91,7,15]","-63.4"
"277","2379","3","24","1","98","1","1581501654","1581501552","302","[10,18,42,57,87,22,43,39,25,16]","181.5"
"278","2308","3","24","1","5","1","1581501652","1581501552","302","[61,1,38,100,59,85,79,4,22,60]","5.1"
"279","2330","3","24","1","85","1","1581501644","1581501552","302","[35]","159.7"
"280","2380","3","24","1","95","1","1581501645","1581501552","302","[18,98,76,99]","117.2"
"281","2359","3","24","1","40","1","1581501650","1581501552","302","[79,80,15,19,63,77,94,99,65,83]","7.3"
"282","2376","3","24","1","25","1","1581501642","1581501552","302","[98,95]","139.9"
"283","2313","3","24","1","73","1","1581501656","1581501552","302","[76,52,64,49,23]","59.9"
"284","2323","3","24","1","31","1","1581501654","1581501552","302","[37,49,85,50]","90.4"
"285","2346","3","24","1","63","1","1581501657","1581501552","302","[49,40,23]","151.5"
"286","2389","3","24","1","69","1","1581501658","1581501552","302","[37,17,85,21,75,78,15,26,55,38,35,45,19]","-20.1"
"287","2333","3","24","1","10","1","1581501653","1581501552","302","[8,18,49,25,40,45,16,72,71,3,35]","67.5"
"288","2371","3","24","1","30","1","1581501644","1581501552","302","[96,37,41]","145.9"
"289","2317","3","24","1","57","1","1581501621","1581501552","302","[74,36,25,98,15,80,59,66,44,41,30,62,73,32,85,100]","99.6"
"290","2395","3","24","1","56","1","1581501616","1581501552","302","[25,76,15,90,19,85,73,30]","60"
"291","2375","3","24","1","67","1","1581501658","1581501552","302","[72,9,23,99,49,81,83,15]","23.2"
"292","2329","3","24","1","37","1","1581501647","1581501552","302","[100,9,21,69,31,96,22,46]","-19.3"
"293","2366","3","24","1","62","1","1581501640","1581501552","302","[51,49]","120.5"
"294","2338","3","24","1","83","1","1581501656","1581501552","302","[1,21,63,52,79,64,18,98,66,72,49,78,61,76,9,94,36,88,67,81,93,82,97,43,92,25,48,68,34,10,75,7,41,40,26,19,38,6,2,59,29,12,53,33,84]","-398.2"
"295","2322","3","24","1","20","1","1581501659","1581501552","302","[23,96,35,60,51]","-9.6"
"296","2355","3","24","1","38","1","1581501655","1581501552","302","[8,100,17,5,3,46,10,99,32,72,67,68,52,22,41,14,95,26,45,55,21,20,94,2,7,76,43,84,77,47,83,69,49]","-342.4"
"297","2311","3","24","1","81","1","1581501649","1581501552","302","[75,15,23,49,89,58,64,2,68]","28.4"
"298","2334","3","24","1","46","1","1581501581","1581501552","302","[49,32]","196.4"
"299","2393","3","24","1","8","1","1581501657","1581501552","302","[34,52,75,55,68,10,99,45,21,69,38,26,35,83,9,50,11,23,84,51,93,81,7,94,70,64,78,71,49,40,6,92]","-420.7"
"300","2301","3","24","1","39","1","1581501657","1581501552","302","[25,28,42,48,94,7,6,64]","-33.9"
"301","2398","4","24","1","74","1","1581502238","1581502006","107","[87,29,88,12,76]","171.4"
"302","2345","4","24","1","6","1","1581502286","1581502006","107","[9,1,100,49,18,64,58,79,97,38,85,3,16,32,62,60,47,59,19,68,87,22,66,56,71,14,51,13,53,74,50,76,25,31,67,73,95,78,28,54,83,94,52,77,89,96,55,21,61,86,35,98,88,45,23,81,33,37,70,48,36,41,5,44,4,80,75,34,8,90,91,84,65,69,99,29,42,20,2,40,63,43,7,10,57,11,30,39,27,46,93,72,17,12,15,26,24]","1501.6"
"303","2325","4","24","1","24","1","1581502332","1581502006","107","[30,25,32,99,49,63,46,47,87,64]","146.5"
"304","2385","4","24","1","14","1","1581502332","1581502006","107","[47]","224.9"
"305","2344","4","24","1","10","1","1581502332","1581502006","107","[14,41,85,17,16,13,48,22,91,59,1,65,49,29,92,47,77]","69.3"
"306","2305","4","24","1","94","1","1581502282","1581502006","107","[42,74,8,41,47,50]","224.4"
"307","2386","4","24","1","18","1","1581502335","1581502006","107","[6]","211.7"
"308","2378","4","24","1","77","1","1581502328","1581502006","107","[84,42,70,82,17,6,47,97,88,55,7,41,1,45,4,94,10,35,95,29,48,96]","95.7"
"309","2342","4","24","1","1","1","1581502272","1581502006","107","[47]","224.9"
"310","2347","4","24","1","67","1","1581502334","1581502006","107","[95,84,78,93,55,96,50,75,49,48,19,97,47,23,16,32,73,6,37,42,63,89,54,39]","85"
"311","2312","4","24","1","42","1","1581502334","1581502006","107","[23,92,6]","136.7"
"312","2332","4","24","1","35","1","1581502308","1581502006","107","[84,30,64,93,66,25,47,6,87,52]","160.9"
"313","2369","4","24","1","7","1","1581502329","1581502006","107","[30,68,1,65,41,32,94,47,31,24,6]","96"
"314","2362","4","24","1","40","1","1581502334","1581502006","107","[72,57,42,23,35,93,6,47]","9.4"
"315","2381","4","24","1","79","1","1581502334","1581502006","107","[29,47,45,25,61,41,2]","59"
"316","2360","4","24","1","13","1","1581502207","1581502006","107","[6]","211.7"
"317","2318","4","24","1","63","1","1581502324","1581502006","107","[91,73,68,75,37,85,90,93,94,32,55,3,81,48,25,22,72,59,61,10,43,56,39]","-175.6"
"318","2377","4","24","1","76","1","1581502326","1581502006","107","[71,24,69,15,30,3,11,64,26,68,48,1,39,42,100,32,82,95,72,60,66,36,47,6,23,90,49,96,12,7,37,89,31,51,62,85]","-257.1"
"319","2399","4","24","1","23","1","1581502334","1581502006","107","[8,49,100,17,1,59,99,75,42,43,44,79,57,40,36,66,53,73,29,39,55,4,48,19,80,87,2,67,5,6,56,32,26,70,58,20,24,76,9,85,38,81,78,89,92,37,60,46,30,31,25,21,7,45,47,63,27,98,95,10]","-450"
"320","2306","4","24","1","87","1","1581502335","1581502006","107","[71,75,36,73,69,25,64,1,20,18,2,60,96,94,84,4,100,86,93,52,68,47,11,6,3]","305.6"
"321","2376","4","24","1","62","1","1581502090","1581502006","107","[9,6]","177.3"
"322","2316","4","24","1","5","1","1581502329","1581502006","107","[48,47,6,72]","85"
"323","2373","4","24","1","16","1","1581502297","1581502006","107","[47]","224.9"
"324","2336","4","24","1","34","1","1581502160","1581502006","107","[6]","211.7"
"325","2304","4","24","1","50","1","1581502329","1581502006","107","[100,37,21,8,96,42,40,71,13,34,52,1,20,94,28,97,4,65,41]","90.5"
"326","2315","4","24","1","36","1","1581502333","1581502006","107","[19,24,52,57,63,6,58,41,47,80,38,9,71,22,72,49,85,46,28,45,42,67]","7.5"
"327","2329","4","24","1","45","1","1581502324","1581502006","107","[28,94,84,38,1,20,47,75,6,48]","37.8"
"328","2328","4","24","1","17","1","1581502050","1581502006","107","[24,30,59,47]","224.9"
"329","2392","4","24","1","26","1","1581502335","1581502006","107","[37,90,24,88,32,25,2,75,11,91,12,33,84,57,89,49,63,1,3,41,87,9]","-28.2"
"330","2358","4","24","1","98","1","1581502237","1581502006","107","[69,47,12,4,93,41,91,65,68,35,22,5,71,88,33,14,97,64,24,51,86,6,28,20,29]","5.2"
"331","2355","4","24","1","95","1","1581502325","1581502006","107","[57,28,61,6,47,75]","150.9"
"332","2388","4","24","1","55","1","1581502325","1581502006","107","[36,48,59,24,6,83,1,37]","134.2"
"333","2364","4","24","1","20","1","1581502277","1581502006","107","[11,47,88]","224.9"
"334","2335","4","24","1","37","1","1581502335","1581502006","107","[16,100,36,47,6,57,27,55,48,50]","203.9"
"335","2384","4","24","1","71","1","1581502313","1581502006","107","[6]","211.7"
"336","2317","4","24","1","65","1","1581502323","1581502006","107","[85,14,81,22,28,83,34,18,8,74]","155"
"337","2389","4","24","1","96","1","1581502304","1581502006","107","[79,24,71,27,6,89,90,92]","211.7"
"338","2343","4","24","1","11","1","1581502332","1581502006","107","[47]","224.9"
"339","2382","4","24","1","70","1","1581502262","1581502006","107","[47,24,17,48,6,100]","160.9"
"340","2387","4","24","1","68","1","1581502333","1581502006","107","[47]","224.9"
"341","2370","4","24","1","57","1","1581502256","1581502006","107","[73,47,81]","224.9"
"342","2349","4","24","1","88","1","1581502282","1581502006","107","[47]","224.9"
"343","2356","4","24","1","80","1","1581502246","1581502006","107","[47]","224.9"
"344","2368","4","24","1","21","1","1581502335","1581502006","107","[100,17,79,19,85,38,80,61,20,97,53,8,78,34,73,49,75,95,24,72,1,54,63,99,9,40,47,14,81,60,90,6,56,36]","-210.4"
"345","2323","4","24","1","86","1","1581502140","1581502006","107","[6]","211.7"
"346","2367","4","24","1","56","1","1581502328","1581502006","107","[47,6,23,43,30,63,21]","-111.8"
"347","2397","4","24","1","92","1","1581502332","1581502006","107","[74,90,11,78,33,9,79,31,41,82,55,23,60,26,47]","17"
"348","2354","4","24","1","22","1","1581502332","1581502006","107","[19,25,90,93,65,85,51,59,37,71,13,31,53,73,66,69,91,28,94,2,58,1,63,100,3,55,26,98,6]","37.7"
"349","2311","4","24","1","69","1","1581502334","1581502006","107","[63,100,55,74,19,2,5,99,29,27,83,47,84,80,57,4,20,58,98,49]","-2.3"
"350","2372","4","24","1","100","1","1581502308","1581502006","107","[17,6,63,90,36,86,80,96,59]","134.2"
"351","2359","4","24","1","3","1","1581502326","1581502006","107","[16,90,11,18,84,2,27,86,57,14,88,54,36,49,74,51,87,24,55,89,26,83]","95.7"
"352","2352","4","24","1","89","1","1581502311","1581502006","107","[36,33,8,47,6,26]","186.6"
"353","2353","4","24","1","84","1","1581502333","1581502006","107","[47,45]","146.5"
"354","2391","4","24","1","32","1","1581502334","1581502006","107","[87,37,11,42,2,6,65,63]","149.8"
"355","2363","4","24","1","78","1","1581502238","1581502006","107","[96,47]","224.9"
"356","2375","4","24","1","43","1","1581502290","1581502006","107","[24,19,29,1,4,67,5,87,21,23,70,47,83,56,48,17,6]","7.5"
"357","2361","4","24","1","75","1","1581502334","1581502006","107","[17,100,99,39,57,60,42,43,50,24,97,19,63,4,52,22,65,10,25]","6"
"358","2366","4","24","1","82","1","1581502325","1581502006","107","[17,78,84,9,76,72,25,44,48,5,60,100,96,15,12,41,31,24,30,49,51,92]","-216.7"
"359","2351","4","24","1","90","1","1581502303","1581502006","107","[24,46,36,86,47,9,48,93,87,100,29,31,6,60,13,44,91]","54.2"
"360","2380","4","24","1","85","1","1581502327","1581502006","107","[72,9,87,89,6,47,81,66,29,35,97,69,8,59,23,30,21,36]","-187.2"
"361","2379","4","24","1","33","1","1581502334","1581502006","107","[47,65,98]","147.9"
"362","2394","4","24","1","81","1","1581502315","1581502006","107","[43,6,47,23]","85"
"363","2339","4","24","1","59","1","1581502332","1581502006","107","[61,21,28,62,89,42,34,64,24,16,80,20,99,91,57,52,84,45,1,18,78,97,6,4,35,47,50,94,65,88,10,8,73,74,83]","95.7"
"364","2327","4","24","1","53","1","1581502330","1581502006","107","[6,50,73,22,47,48]","109.6"
"365","2340","4","24","1","66","1","1581502263","1581502006","107","[47]","224.9"
"366","2371","4","24","1","61","1","1581502323","1581502006","107","[17,79,58,99,34,42,75,95,16,85,5,92,10,31,94,80]","-51"
"367","2310","4","24","1","52","1","1581502331","1581502006","107","[47,42,88,80,91,57,64,33,28,20,78,2]","146.5"
"368","2309","4","24","1","60","1","1581502335","1581502006","107","[79,15,97,21,17,96,59,78,42,40,9,3,18,82,64,6,100,36,90,73,13,71,88,23,92,70,49,47,5,19]","1.3"
"369","2365","4","24","1","73","1","1581502321","1581502006","107","[80,100,1,17,99,97,79,60,39,96,8,42,49,40,61,43,75,38,50,65,34,13,74,62]","171.4"
"370","2331","4","24","1","8","1","1581502334","1581502006","107","[99,42,57,29,34,100,38,97,88,61,28,23]","179.4"
"371","2314","4","24","1","72","1","1581502335","1581502006","107","[63,9,85,41,5,27,70,54,48,82,26,42,31,29,93,97,59,1,94,47,99,66,38,75,92,87,6,3,71,62,21,76,40,64,8,36,73,32,65,50,79]","-347.6"
"372","2400","4","24","1","30","1","1581502329","1581502006","107","[76,90,42,78,39,73,80,66,2,100,53,75,96,37,62,14,40,16,15,87,32,44,36,85,23,59,56,21]","-191.2"
"373","2330","4","24","1","38","1","1581502327","1581502006","107","[21,72,23]","32.3"
"374","2324","4","24","1","4","1","1581502277","1581502006","107","[47]","224.9"
"375","2374","4","24","1","97","1","1581502335","1581502006","107","[47]","224.9"
"376","2396","4","24","1","44","1","1581502325","1581502006","107","[87,30,88,46,93,82,60,37,6,51,48,73,74,4,24,100,47,34,23]","-75.8"
"377","2333","4","24","1","29","1","1581502312","1581502006","107","[100,1,36,17,97,47,64,48,54,44,6]","95.7"
"378","2337","4","24","1","58","1","1581502331","1581502006","107","[8,21,100,95,97,57,42,71,4,59,50,62,23,48,63,6,61,22,47,19]","57.8"
"379","2302","4","24","1","99","1","1581502332","1581502006","107","[100,1,47]","224.9"
"380","2395","4","24","1","51","1","1581502307","1581502006","107","[76,71,34,59,64,12,30,65,6,83]","58.4"
"381","2357","4","24","1","83","1","1581502331","1581502006","107","[24,63,75,54,36,100,39,66,74,27,99,16,17,96,86,34,13,18,89]","166"
"382","2390","4","24","1","54","1","1581502310","1581502006","107","[15,83,6,47]","246.9"
"383","2308","4","24","1","49","1","1581502331","1581502006","107","[29,69,28,96,65,47]","146.5"
"384","2346","4","24","1","46","1","1581502330","1581502006","107","[99,18,8,70,31,65,62,37,47,44,48,82,49,54,9,92,6,90]","8"
"385","2393","4","24","1","48","1","1581502335","1581502006","107","[57,93,73,24,75,8,11,49,92,42,4,34,32,2,83,52,84,1,35,41,71,51,69,21,54,78,68,62,66,89,50,27,13,22,100,30,7,74,80,39,86,19,45,47,29]","69.3"
"386","2341","4","24","1","39","1","1581502331","1581502006","107","[24,87,8,65,6,75]","207.5"
"387","2319","4","24","1","41","1","1581502333","1581502006","107","[74,24,31,32,96,63,28,14,89,62,21,61,34,79,91,22,81,49,75,1,86,71,80,13,68,18,55,100,38,58,8,19,6]","90.1"
"388","2321","4","24","1","9","1","1581502326","1581502006","107","[37,26,86,8,77,97,100,96,89,28,88,51,14,71,64,16,93,34,20,99,94,39,42,70,74,1,63,62,90,5,82,24]","-31.7"
"389","2322","4","24","1","31","1","1581502335","1581502006","107","[27,47,41,7,61]","55.2"
"390","2303","4","24","1","47","1","1581502210","1581502006","107","[98,15,31,88,35,36,19,32,1,10,66,90,61,71,82,56,79,84,95,50,29,52,70,94,55,48,63,22,97,73,80,23,11,25,26,37,69,17,100,16,7,33,92,14,85,27,62,2,39,20,96,54,45,8,21,51,86,13,3,46,57,28,83,74,49,99,34,38,58,18,78,5,91,64,24,42,81,41,65,9,89,44,67,75,53,87,4,43,59,68,76,30,77,40,12,72,93,60,6]","3982.2"
"391","2326","4","24","1","19","1","1581502321","1581502006","107","[20,55,27,84,63,42,29,21,87,47,22]","101.6"
"392","2338","4","24","1","64","1","1581502325","1581502006","107","[30,88,71,80,61,24,47,65]","146.5"
"393","2350","4","24","1","27","1","1581502311","1581502006","107","[47,6]","160.9"
"394","2320","4","24","1","91","1","1581502309","1581502006","107","[47]","224.9"
"395","2313","4","24","1","28","1","1581502326","1581502006","107","[32,47]","224.9"
"396","2348","4","24","1","12","1","1581502332","1581502006","107","[26,90,41,22,38,100,53,15,51,61,96,10,88,57,47,48,67,19,82,46,76,29,7,6,74]","129.8"
"397","2383","4","24","1","2","1","1581502334","1581502006","107","[16,90,64,13,41,68,24,54,35,5,27,47,42,20,79,57,52,88,91,94,80,1,50,69]","-1.3"
"398","2301","4","24","1","25","1","1581502334","1581502006","107","[52,86,2,11,1,75,36,30,27,29,6,68,5,48,46,17,93,61,50,95,63]","87.8"
"399","2334","4","24","1","15","1","1581502317","1581502006","107","[76,87,68,54,28,30,6,47,12]","-103.9"
"400","2307","4","24","1","93","1","1581502334","1581502006","107","[75,18,30,83,74,2,73,50,24,1,29,45,69,3,25,72,47,63]","88.8"
"401","2344","5","24","1","35","1","1581502642","1581502498","329","[41,100,34,43,87,30,79,16,33,53]","33.8"
"402","2316","5","24","1","46","1","1581502640","1581502498","329","[90,48,14,100]","72.9"
"403","2306","5","24","1","100","1","1581502643","1581502498","329","[71,75,63,73,54,93,87,31,47,61,1,56,5,7,42,81,38,65,52,50,28,36]","-49.7"
"404","2314","5","24","1","63","1","1581502643","1581502498","329","[66,20,100,6,93,84,85,96,67,50,14,25,37,55,71,77,73,97,87,18,91]","-73.4"
"405","2385","5","24","1","72","1","1581502639","1581502498","329","[90,74]","196.9"
"406","2369","5","24","1","22","1","1581502640","1581502498","329","[54,90,53,18]","53.3"
"407","2367","5","24","1","88","1","1581502623","1581502498","329","[83,69,14]","135.3"
"408","2352","5","24","1","4","1","1581502641","1581502498","329","[16,25,17,28,65,24,29,97,14,76,87]","70.6"
"409","2347","5","24","1","26","1","1581502639","1581502498","329","[90,87,15,41,56,45,52,14,64,100,82,25,89]","22.9"
"410","2370","5","24","1","38","1","1581502627","1581502498","329","[1,9,14]","215.7"
"411","2339","5","24","1","99","1","1581502642","1581502498","329","[79,20,55,36,96,72,14,88,30,60,87,16,77,17,97,76,33,32,38,62,47,50,75,41]","277.1"
"412","2336","5","24","1","50","1","1581502614","1581502498","329","[14]","215.7"
"413","2390","5","24","1","93","1","1581502638","1581502498","329","[15,63,89,31,34,87,44,30,9,92,84,66,8,73,52,14,7,39,24,81,85,43,83]","-5.8"
"414","2387","5","24","1","32","1","1581502610","1581502498","329","[14]","215.7"
"415","2346","5","24","1","57","1","1581502643","1581502498","329","[61,8,37,79,26,21,13,67,60,50,55,39,78,30,62,69,38,92,20,14,77,99,66,43,85,71,93,74]","-19.2"
"416","2321","5","24","1","23","1","1581502639","1581502498","329","[72,98,15,84,76,19,41,91,13,62,46,33,6,60,36,58,68,39,30,55,96,50,56,3,16,61,45,86,94,71,43,78,17,14,24,90]","346.5"
"417","2360","5","24","1","52","1","1581502596","1581502498","329","[90,45,46]","196.9"
"418","2362","5","24","1","53","1","1581502642","1581502498","329","[48,73,27,97,87,24,42,7,49,6,35,84,39,62,12,43,2,59,54,14,90]","-205"
"419","2343","5","24","1","44","1","1581502639","1581502498","329","[79,14,84,93,100]","155.7"
"420","2335","5","24","1","92","1","1581502640","1581502498","329","[37,75,89,48,14,11,10,73]","70.9"
"421","2345","5","24","1","90","1","1581502643","1581502498","329","[1,8,48,84,26,59,42,40,52,41,2,45,46,86,6,70,22,51,27,94,39,43,76,82,13,14,18,66,36,91,78,7,62,96,32,38,31,11,15,72,12,28,99,16,79,37,77,88,92,49,53,60,29,9,71,5,89,24,35,61,30,23,55,58,33,68,64]","474.8"
"422","2386","5","24","1","9","1","1581502639","1581502498","329","[2,39,90]","119.9"
"423","2323","5","24","1","87","1","1581502636","1581502498","329","[14]","215.7"
"424","2340","5","24","1","66","1","1581502641","1581502498","329","[63,36,72,90,60,84,87,9,43,14]","7.6"
"425","2364","5","24","1","42","1","1581502622","1581502498","329","[14,90]","149.5"
"426","2353","5","24","1","91","1","1581502631","1581502498","329","[14,99]","215.7"
"427","2358","5","24","1","65","1","1581502596","1581502498","329","[100,8,37,77,79,80,46,96,89,4,64,29,14]","-7"
"428","2381","5","24","1","71","1","1581502628","1581502498","329","[23]","173"
"429","2373","5","24","1","79","1","1581502640","1581502498","329","[28,44,89]","86.3"
"430","2397","5","24","1","6","1","1581502641","1581502498","329","[90,18]","123"
"431","2337","5","24","1","85","1","1581502638","1581502498","329","[27,15,43,36,30,51,20]","107.5"
"432","2304","5","24","1","47","1","1581502593","1581502498","329","[1,14]","215.7"
"433","2378","5","24","1","8","1","1581502634","1581502498","329","[32,38,40,77,90,14,6,70,96,75,62,89]","149.5"
"434","2368","5","24","1","78","1","1581502634","1581502498","329","[8,48,37,58,1,45,42,68,59,70,69,21,76,23,86,39,2,90]","-237.6"
"435","2361","5","24","1","20","1","1581502640","1581502498","329","[64,38,80,75,57,89,61,82,98,3,76,55,87,9,21,56,15,30,41,27,23,29,84]","26"
"436","2356","5","24","1","73","1","1581502634","1581502498","329","[14,43]","143.2"
"437","2331","5","24","1","77","1","1581502625","1581502498","329","[52,47,32,96,56,14]","215.7"
"438","2377","5","24","1","39","1","1581502635","1581502498","329","[24,25,90,41,87,9,81,100,14]","45.3"
"439","2309","5","24","1","74","1","1581502641","1581502498","329","[97,12,76,18,81,19,51,29,4,14,100,77,62,38,39]","137.4"
"440","2365","5","24","1","67","1","1581502641","1581502498","329","[37,97,21,79,100,75,11,30,43,38,42,78,45,71,27]","2.7"
"441","2303","5","24","1","14","1","1581502635","1581502498","329","[15,68,10,48,12,4,21,42,39,65,30,55,95,73,92,45,3,70,86,69,44,91,82,6,59,96,37,66,63,93,94,62,36,80,33,49,8,43,97,90,75,51,50,99,5,20,89,24,18,60,17,52,84,19,26,13,32,34,64,47,16,46,61,57,56,72,40,88,76,98,23,2,87,25,1,38,74,58,53,83,31,77,7,79,29,81,35,27,71,41,85,54,67,11]","3678.5"
"442","2384","5","24","1","36","1","1581502628","1581502498","329","[14]","215.7"
"443","2341","5","24","1","34","1","1581502628","1581502498","329","[76,84,58,79,64,17,47,37,15,32,60,98,41,93,40,43,70,6,35,66,53,14]","105.3"
"444","2372","5","24","1","30","1","1581502643","1581502498","329","[38,8,2,56,75,86,59,11,49]","133.4"
"445","2355","5","24","1","51","1","1581502633","1581502498","329","[72,33,8,75,59,26,90,40,1,85,97,54,43,14,79,2,68,78,73]","-146.7"
"446","2320","5","24","1","33","1","1581502633","1581502498","329","[72,14,90]","149.5"
"447","2328","5","24","1","25","1","1581502643","1581502498","329","[72,76,64,24,37,74,29,15,41,54,27,4,77,48,40,28,43,39,17,95,60,20,18,63,97,87,23,21,55,56,19,71,96,38,61,14,79,16,30,31,52,8,32,91,33,75,11,73,85,98,13,26,2,84,82]","-204.5"
"448","2399","5","24","1","58","1","1581502639","1581502498","329","[48,36,44,78,34,41,98,23,61,72,40,49,43,15,33,97,24,3,9,14,83,68,35,95,100,53,90]","-89.8"
"449","2363","5","24","1","76","1","1581502641","1581502498","329","[14,90]","149.5"
"450","2391","5","24","1","15","1","1581502635","1581502498","329","[72,76,25,29,41,27,43,100,13]","53.9"
"451","2398","5","24","1","60","1","1581502589","1581502498","329","[75,37,80,22,19,34,62,47,30,16,88]","157.5"
"452","2400","5","24","1","56","1","1581502639","1581502498","329","[36,24,64,46,19,75,40,26,86,23,15,13,35,72,87,30,9,2,21,52,94,57,98,41,45]","97.9"
"453","2383","5","24","1","29","1","1581502635","1581502498","329","[72,98,32,7,11,73,88,17,37]","72.3"
"454","2325","5","24","1","7","1","1581502619","1581502498","329","[16,87,24,40,97,2,22,14,64]","164.6"
"455","2374","5","24","1","75","1","1581502642","1581502498","329","[14]","215.7"
"456","2396","5","24","1","59","1","1581502640","1581502498","329","[72,36,90,19,51,14,67,85,48,100,62,78,68,41,38,61,45,87,10,98,6,54]","-253.9"
"457","2312","5","24","1","40","1","1581502632","1581502498","329","[2,70,14,90,68]","72.9"
"458","2389","5","24","1","45","1","1581502635","1581502498","329","[90,79,46,43,49]","51.9"
"459","2354","5","24","1","82","1","1581502642","1581502498","329","[75,89,49,2,90,69,26,66,38,40]","49"
"460","2388","5","24","1","5","1","1581502641","1581502498","329","[100,77,14,90]","133.9"
"461","2327","5","24","1","21","1","1581502633","1581502498","329","[67,57,55,14,56,41,20]","44"
"462","2313","5","24","1","62","1","1581502600","1581502498","329","[14]","215.7"
"463","2357","5","24","1","24","1","1581502638","1581502498","329","[72,29,60,58,35]","169.2"
"464","2359","5","24","1","83","1","1581502643","1581502498","329","[98,31,88,15,44,18,1,4,40,17,87,73,92,11,78,79,93,60]","25.6"
"465","2338","5","24","1","41","1","1581502639","1581502498","329","[72,76,84,98,64,36,29,99,3,30,62,96,77,83,91,95,55,24,60,88,16,19,66,43,15]","83.7"
"466","2394","5","24","1","80","1","1581502629","1581502498","329","[89,14,67,29,65,68]","5"
"467","2351","5","24","1","37","1","1581502544","1581502498","329","[72,77,40,29,25]","155.1"
"468","2395","5","24","1","69","1","1581502591","1581502498","329","[15,88,44,70,41,14,34]","138.2"
"469","2392","5","24","1","98","1","1581502620","1581502498","329","[27,23,83,31,40,45,52,84]","61"
"470","2366","5","24","1","18","1","1581502627","1581502498","329","[76,24,29,25,89,6,2,22,63,90]","-87"
"471","2349","5","24","1","96","1","1581502590","1581502498","329","[72,15,14]","215.7"
"472","2371","5","24","1","3","1","1581502636","1581502498","329","[84,85,61,68,73,49,53,80,44,4,64,95,76,91,32,96,47,48,65,81]","28.9"
"473","2375","5","24","1","10","1","1581502636","1581502498","329","[54,48,79,53,68,59,100]","-50.4"
"474","2310","5","24","1","84","1","1581502640","1581502498","329","[36,90,71,79,56,98]","156.2"
"475","2379","5","24","1","17","1","1581502643","1581502498","329","[16]","0"
"476","2318","5","24","1","64","1","1581502638","1581502498","329","[76,29,65,17,1,26,7,79,27,98,46,48,73,10,40,31,11]","-101.3"
"477","2376","5","24","1","16","1","1581502530","1581502498","329","[89]","158.5"
"478","2350","5","24","1","1","1","1581502633","1581502498","329","[98,90,40,14]","149.5"
"479","2308","5","24","1","27","1","1581502641","1581502498","329","[41,83,2,67,66,13,53,90,25]","-1.8"
"480","2380","5","24","1","86","1","1581502593","1581502498","329","[36,90,14,43]","75.4"
"481","2382","5","24","1","94","1","1581502637","1581502498","329","[90,14,77,43,68]","72.9"
"482","2326","5","24","1","28","1","1581502643","1581502498","329","[49,85,1,48,77,97,24,64,11,92,25,7,100,84,81,30,21,38,63,20,22,75,19,90,43]","-30.2"
"483","2333","5","24","1","2","1","1581502637","1581502498","329","[38,43,75,11,78,90,14,54,62,23]","9.8"
"484","2302","5","24","1","31","1","1581502635","1581502498","329","[15,84,64,7,90]","138.4"
"485","2334","5","24","1","54","1","1581502623","1581502498","329","[76,72,15,98,25,12,74,10,18,31,51,97,59,7,79,69,62,60,40,83,22,55,14]","-153.1"
"486","2305","5","24","1","95","1","1581502604","1581502498","329","[14,89,3]","171.1"
"487","2317","5","24","1","48","1","1581502643","1581502498","329","[53,90,78,11,73,41,40,29,2,7,46,68,25,59,64,76,10,70,92,39,14,83]","-334.1"
"488","2393","5","24","1","13","1","1581502643","1581502498","329","[15,57,56,82,75,33,87,23,92,47,10,90,48,79,93,68,14,83,64,1,78,19,99,20,6,32,61,65,53,25,41,85,43,12,88,21,44,81,5,40,86,66,45]","-221"
"489","2324","5","24","1","19","1","1581502628","1581502498","329","[100,97,23]","173"
"490","2348","5","24","1","49","1","1581502642","1581502498","329","[38,28,87,53,14,68,43,100,82,3,58,90,45]","-284.3"
"491","2342","5","24","1","97","1","1581502627","1581502498","329","[14]","215.7"
"492","2311","5","24","1","61","1","1581502636","1581502498","329","[46,39,43,66,71,23,72]","111.4"
"493","2315","5","24","1","70","1","1581502642","1581502498","329","[90,99,14,73,45,86,82,2,13,46]","149.5"
"494","2332","5","24","1","68","1","1581502642","1581502498","329","[84,50,24,94,23,26,48,87,53,49,78,59,44,83,72,40,3,97,14,43,58,10,80,51,22,90,86,13,2,82]","-567.6"
"495","2319","5","24","1","89","1","1581502639","1581502498","329","[75,27,47,20,92,80,3,67,33,73,16,56,94,96,52,86,22,50,70,69,91,9,62,18,99,74,79,41,30,26,38,32,76,14]","156.8"
"496","2307","5","24","1","12","1","1581502642","1581502498","329","[54,53,29,13,14,59,46,90]","-72"
"497","2330","5","24","1","55","1","1581502622","1581502498","329","[21,61,57,23]","29.6"
"498","2301","5","24","1","43","1","1581502636","1581502498","329","[98,15,72,84,61,64,85,74,2,28,97,87,46,9,7,90,86,34,17,54,78,52,71,21,58,49,14,20,93,60,25,23,37,51,35,66,57,29,68,24,55,67,45,53,92,73,76,33,91,32,40,47,75,38,62,99,31,6,8,70,13,30]","-344.7"
"499","2322","5","24","1","11","1","1581502635","1581502498","329","[24,90,67,16,29]","217.1"
"500","2329","5","24","1","81","1","1581502643","1581502498","329","[85,12,74,4,14]","137.4"
"501","2339","6","24","1","44","1","1581503203","1581502910","145","[90,16,100,24,47,73,84,42,54,83,13,88,75,81,87,71,50,74,23,5,64,10,39,79,66,46,48]","232"
"502","2301","6","24","1","32","1","1581503202","1581502910","145","[72,76,98,88,25,99,42,19,86,100,58,13,39,68,96,15,46,74,92]","79.5"
"503","2306","6","24","1","96","1","1581503202","1581502910","145","[71,63,73,19,25,23,27,88,98,21,58,4,10,67,14,65,79,100,64,89,46,75]","239.6"
"504","2374","6","24","1","94","1","1581503202","1581502910","145","[46,79]","232"
"505","2304","6","24","1","62","1","1581503032","1581502910","145","[46]","232"
"506","2390","6","24","1","8","1","1581503195","1581502910","145","[46]","232"
"507","2356","6","24","1","35","1","1581503048","1581502910","145","[46]","232"
"508","2347","6","24","1","92","1","1581503193","1581502910","145","[71,36,25,83,78,35,87,97,69,52,59,41,88,68,39,80,32,13,84,53,23,98,46,75,70,95,100,33]","145.8"
"509","2362","6","24","1","55","1","1581503181","1581502910","145","[38,18,4,35,28,78,31,46,92,91,39,74,2,26,68]","85.2"
"510","2383","6","24","1","38","1","1581503189","1581502910","145","[72,98,88,95,46,50,89,2]","232"
"511","2370","6","24","1","42","1","1581503203","1581502910","145","[46,91]","153.7"
"512","2335","6","24","1","53","1","1581503195","1581502910","145","[72,23,50,88,98,25,76,46,6,89,26,9,15]","372.5"
"513","2315","6","24","1","88","1","1581503202","1581502910","145","[63,71,70,93,86,49,52,46,5,4,58,64,19,67,74,73,10,99,94,21,87,47,14,28,89,20,8,65,95,34]","159.2"
"514","2363","6","24","1","71","1","1581503032","1581502910","145","[46]","232"
"515","2344","6","24","1","86","1","1581503138","1581502910","145","[46]","232"
"516","2327","6","24","1","18","1","1581503195","1581502910","145","[46,70,77]","108.7"
"517","2353","6","24","1","22","1","1581503201","1581502910","145","[46,44,4]","232"
"518","2312","6","24","1","7","1","1581503201","1581502910","145","[80,33,88,8,54,70,38,40,64,77,86,9,46,5,23,75]","154.2"
"519","2385","6","24","1","25","1","1581503196","1581502910","145","[46]","232"
"520","2331","6","24","1","28","1","1581503183","1581502910","145","[99,1,21,50,89,86,14,98,27,63,100,46]","232"
"521","2314","6","24","1","29","1","1581503183","1581502910","145","[2,42,4,93,95,66,8,22,33,39,65,63,64,98,14,10,50,89,27,67,100,72,28,41,51,70,68,44,45,54,81,30]","108.1"
"522","2318","6","24","1","77","1","1581503203","1581502910","145","[18,79,31,30,68,87,42,99,44,70,64,89,61,88,92,60,26,38,52,8,80,54,95,55,65,98,59,78,28,33,93,4,51,56,3,91,72,37,11,69,14]","-99"
"523","2345","6","24","1","41","1","1581503202","1581502910","145","[21,71,87,86,33,83,28,100,32,64,11,23,3,19,58,72,56,27,14,98,65,10,73,47,12,40,63,48,95,1,80,62,25,46,7,13,67,84,52,4,57,88,61,42,35,51,22,79,49,59,96,90,6,8,76,81,44,5,24,77,55,99,31,50,26]","232"
"524","2384","6","24","1","27","1","1581503199","1581502910","145","[46]","232"
"525","2378","6","24","1","45","1","1581503203","1581502910","145","[35,84,9,95,64,22,88,83,29,53,13,72,24,27,94,34,41,23,7,81,15,56,54]","62.7"
"526","2357","6","24","1","48","1","1581503196","1581502910","145","[72,76,64,24,36,61,42,38,78]","164.4"
"527","2323","6","24","1","83","1","1581503159","1581502910","145","[46]","232"
"528","2354","6","24","1","23","1","1581503194","1581502910","145","[53,7,2,68,48,39,21,99,8,40]","93.3"
"529","2361","6","24","1","68","1","1581503201","1581502910","145","[81,50,11,66,63,79,1,78,61,80,33,25,36,52,72,60,42,37,43,51,93,54,86,98,56,13]","31.7"
"530","2308","6","24","1","36","1","1581503203","1581502910","145","[27,87,99,80,46,88,97,41,8,26]","153.7"
"531","2373","6","24","1","76","1","1581503063","1581502910","145","[46]","232"
"532","2369","6","24","1","64","1","1581503184","1581502910","145","[83,46,79]","232"
"533","2364","6","24","1","79","1","1581503102","1581502910","145","[46]","232"
"534","2336","6","24","1","73","1","1581503024","1581502910","145","[46]","232"
"535","2400","6","24","1","57","1","1581503190","1581502910","145","[100,1,79,61,21,48,78,68,64,81,8,10,4,76,71,35,80,40,36,92,56,95,85,30]","105.8"
"536","2348","6","24","1","16","1","1581503202","1581502910","145","[98,15,72,37,74,75,25,88,19,87,82,54,41,18,93,51,26,91,43,17,59,14,68,13,77,70,30,33]","-441.1"
"537","2396","6","24","1","69","1","1581503195","1581502910","145","[79,97,46,91,70,25,95,5,52,68,41,3]","159.2"
"538","2321","6","24","1","30","1","1581503202","1581502910","145","[22,35,29,89,28,52,25,10,20,88,11,67,98,79,50,27,14,63,65,64,7,12,72,51,87,23,33,48,1,39,47,40,76,95,56,13,83,86,21,99,32,92,42,24,66,84,74,19,58,2,36,68,93,43,37,75,16,15,100,46,57,77,3,85]","-54.8"
"539","2307","6","24","1","5","1","1581503200","1581502910","145","[72,76,64,74,4,46,40,21]","232"
"540","2368","6","24","1","33","1","1581503201","1581502910","145","[8,100,49,79,38,76,74,52,78,83,57,69,48,24,17,95,39,60,65,36,75,42,63,66,61,44,28,84,92,32,5,89,51,82,85,43,16,13,55,6]","-49.9"
"541","2326","6","24","1","17","1","1581503197","1581502910","145","[49,83,95,82,61,69,68,4,42,41,33,57,81,25,76,79,38,44,88,97,86,52,7,77,60,48,14,30,93,74,55,80,15,16,70,46]","-67.1"
"542","2399","6","24","1","82","1","1581503202","1581502910","145","[17,78,63,15,100,42,58,16,81,79,74,71,56,68,99,57,45,48,36,25,49,77,1,95,8,33,11,80,30,84,70,59,97,41,38,55,76,92,39,4,72,37,32,69,13,61,22,27,66,46,19,52,67,64,14,60,87,3,50,31,5,44,6,43,51,75]","-127.5"
"543","2392","6","24","1","9","1","1581503192","1581502910","145","[3,6,53,100,89,23,4,22,45,24,10,62,41]","95.6"
"544","2340","6","24","1","15","1","1581503197","1581502910","145","[98,26,90,76,84,51,71,56,22,67,11,31,46,41,21,96,28,35,99,44,24,38,40,47,65,7,93,13,72,59,57,48,63,80,78,100,95,1,33,97,42,61,62,25,6,73,12,64,19,14,77,58,81,66,68,43]","232"
"545","2310","6","24","1","12","1","1581503185","1581502910","145","[98,74,90,46,87]","232"
"546","2317","6","24","1","54","1","1581503201","1581502910","145","[52,47,12,24,41,55,43,79,90,10,98,14,67,95,100,40,89,13,46,65,39,66,29,84,27,34,91,9,2,7]","196.7"
"547","2355","6","24","1","37","1","1581503198","1581502910","145","[16,43,70,13,68,82,46,74,30,77]","-187.5"
"548","2387","6","24","1","87","1","1581503195","1581502910","145","[46]","232"
"549","2367","6","24","1","34","1","1581503201","1581502910","145","[70]","189.5"
"550","2352","6","24","1","21","1","1581503082","1581502910","145","[46]","232"
"551","2395","6","24","1","93","1","1581503170","1581502910","145","[42,70,100,16,4,96,41,34,84,46]","96.6"
"552","2365","6","24","1","78","1","1581503190","1581502910","145","[24,48,8,1,21,58,13,100,47,42,39,80,55,46,32]","386.6"
"553","2346","6","24","1","3","1","1581503201","1581502910","145","[60,62,6,44,66,72,97,95,100,49,90,50,89,40,48,98,76,27,23,33,1,79,10,16,30,78,42,39,47,2,11,13,20,22,87,80,57,75,58,38,83,24,84,46,70]","83.6"
"554","2351","6","24","1","11","1","1581503194","1581502910","145","[72,99,76,42,56,36,8,82,30,32,13,70,57,33,16]","-33.7"
"555","2391","6","24","1","80","1","1581503195","1581502910","145","[71,50,4,97,48,46,36]","153.7"
"556","2359","6","24","1","13","1","1581503159","1581502910","145","[98,84,76,4,79,99,100,35,28,58,67,39,37,42,56,86,51,30]","98.4"
"557","2343","6","24","1","61","1","1581503193","1581502910","145","[42,67,22,64,62,71,76,46,58,73,79,21,20]","232"
"558","2388","6","24","1","66","1","1581503171","1581502910","145","[29,97,41,83,27,47,93]","144.2"
"559","2313","6","24","1","10","1","1581503061","1581502910","145","[46]","232"
"560","2386","6","24","1","90","1","1581503136","1581502910","145","[46]","232"
"561","2397","6","24","1","1","1","1581503199","1581502910","145","[78,97,100]","91.3"
"562","2328","6","24","1","89","1","1581503106","1581502910","145","[70,46,41]","159.2"
"563","2303","6","24","1","70","1","1581503189","1581502910","145","[18,27,31,88,45,44,23,87,61,11,93,95,34,22,5,73,91,51,32,16,63,64,48,50,39,9,67,89,77,100,56,74,58,26,13,15,94,65,20,2,85,29,28,1,98,14,33,53,6,62,90,24,41,3,55,30,96,7,80,57,78,8,36,71,86,12,40,47,21,25,4,69,97,17,42,83,82,52,49,72,79,81,54,75,37,35,43,60,76,38,92,68,99,66,59,19,10,84,46]","-423.5"
"564","2382","6","24","1","49","1","1581503174","1581502910","145","[42,46,67,90,25,87,12,64,96,61]","232"
"565","2398","6","24","1","47","1","1581503196","1581502910","145","[100,54,4,78]","108.9"
"566","2394","6","24","1","51","1","1581503176","1581502910","145","[70,16,55,97,46]","96.6"
"567","2366","6","24","1","43","1","1581503185","1581502910","145","[8,80,49,36,37,54,41,55,16,46,7,70,13,77,18,3,74]","-106.5"
"568","2360","6","24","1","6","1","1581503198","1581502910","145","[46,37,11]","232"
"569","2358","6","24","1","85","1","1581503103","1581502910","145","[30,58,99,40,42,74,79,64,63,4,7,53,46,70,15,28,88,22]","83.6"
"570","2337","6","24","1","75","1","1581503203","1581502910","145","[88,96,61,15,23,55,81,100,41]","38.6"
"571","2342","6","24","1","84","1","1581503143","1581502910","145","[46]","232"
"572","2375","6","24","1","74","1","1581503162","1581502910","145","[84,71,32,70,81,16,55,15,95,98,37,72,31,78,43,46]","-240.8"
"573","2320","6","24","1","19","1","1581503194","1581502910","145","[46]","232"
"574","2389","6","24","1","52","1","1581503202","1581502910","145","[46,4,84,38]","232"
"575","2381","6","24","1","24","1","1581503201","1581502910","145","[13,46]","232"
"576","2316","6","24","1","72","1","1581503169","1581502910","145","[46,70,11,68]","103.7"
"577","2379","6","24","1","40","1","1581503203","1581502910","145","[46]","232"
"578","2311","6","24","1","60","1","1581503201","1581502910","145","[46,42,11,72,79,93,2,35,76,15,95,39]","152.3"
"579","2376","6","24","1","98","1","1581503193","1581502910","145","[54,84]","169.2"
"580","2380","6","24","1","50","1","1581503119","1581502910","145","[97,70,46,88]","159.2"
"581","2333","6","24","1","95","1","1581503199","1581502910","145","[48,79,58,80,89,64,12,98,67,14,10,61,50,46,1,78,43,92,76,52,68,65,96,75,27,60,62,40,32,25,55,9]","82.7"
"582","2393","6","24","1","46","1","1581503175","1581502910","145","[62,60,39,13,6,71,21,1,17,49,59,99,96,90,57,53,34,10,83,9,68,7,19,75,26,8,50,69,67,95,44,52,85,20,2,14,55,72,15,64,35,30,28,70,38,89,25,11,36,4,12,23,58,73,22,41,5,98,77,32,100,48,33,79,97,88,40,84,66,94,43,61,47,56,63,76,65,31,3,92,74,42,87,29,24,27,51,37,81,80,78,86,54,82,91,18,16,93]","6844.2"
"583","2330","6","24","1","63","1","1581503157","1581502910","145","[82,100,81,48]","38.9"
"584","2371","6","24","1","39","1","1581503198","1581502910","145","[79,12,35,38,43,18,21,19,6,83,88,65,24,76,78,96,15,85,77,34,90,52,60,50,4,73]","21"
"585","2309","6","24","1","81","1","1581503203","1581502910","145","[27,35,23,8,82,74,24,80,87,100,98,25,17,63,5,33,51,45,75,55,70,11,66,29,57,14,46,95,26,89,77,60,65,38,7,68,59]","232.2"
"586","2338","6","24","1","4","1","1581503200","1581502910","145","[90,94,74,11,73,64,19,100,43,40,79,49,98,6,67,62,23,50,89,51,25,46,27,39]","225.9"
"587","2329","6","24","1","91","1","1581503201","1581502910","145","[27,50,93,51,73,64,68,88,4,42,41,46]","153.7"
"588","2324","6","24","1","58","1","1581503152","1581502910","145","[46]","232"
"589","2322","6","24","1","56","1","1581503202","1581502910","145","[70,44,3]","189.5"
"590","2341","6","24","1","20","1","1581503203","1581502910","145","[46]","232"
"591","2377","6","24","1","14","1","1581503199","1581502910","145","[46,70,6,78,54]","87.9"
"592","2334","6","24","1","65","1","1581503173","1581502910","145","[1,8,48,100,58,80,63,79,67,54,4,75,87,56,70,46,28,44,2]","128.8"
"593","2372","6","24","1","100","1","1581503141","1581502910","145","[79,26,68,36,63,55,75,92]","29.4"
"594","2332","6","24","1","26","1","1581503198","1581502910","145","[72,58,99,46,39,12,32,88]","232"
"595","2349","6","24","1","67","1","1581503112","1581502910","145","[71,46]","232"
"596","2350","6","24","1","31","1","1581503202","1581502910","145","[70,46]","159.2"
"597","2319","6","24","1","97","1","1581503200","1581502910","145","[68,21,83,11,39,62,46,42,6,67,12,71,100,13,87,10,38,79,52,1,48,41]","263.8"
"598","2305","6","24","1","59","1","1581503198","1581502910","145","[46,57,48,95,44,77]","182.4"
"599","2302","6","24","1","99","1","1581503176","1581502910","145","[46]","232"
"600","2325","6","24","1","2","1","1581503203","1581502910","145","[58,79,98,54,47,65,75,61,28,25,49,6,73,67,21,62,4,36,71,12,90,19,52,76,8,83,39,99,97,35,10,42,96,41]","93.7"
