"id","id_subj","round","session","period","id_grp","grp","time","time_start","duration","links","payoff"
"1","666","1","7","1","60","1","1562583271","1562583051","241","[58,64,37,48,91,59,49]","330"
"2","674","1","7","1","63","1","1562583286","1562583051","241","[8,37,24,84,16,78,29,91,34,76,89,83,25,66,32,38,51]","250"
"3","696","1","7","1","83","1","1562583290","1562583051","241","[97,16,66,74,49,84]","330"
"4","659","1","7","1","40","1","1562583289","1562583051","241","[37,17,97,80,59,85,19,69,29,79,91]","90"
"5","698","1","7","1","86","1","1562583292","1562583051","241","[85,64,99,47]","170"
"6","642","1","7","1","43","1","1562583285","1562583051","241","[15,96,40,22,8,4,66,97,52,23,61,47,17,82,24,12,76,58,42]","10"
"7","635","1","7","1","12","1","1562583226","1562583051","241","[8,51,80,78,69,66,43,24,38,23,22,99,21]","-70"
"8","607","1","7","1","48","1","1562583288","1562583051","241","[61,13,69,8,6,73,45,37,52,27]","10"
"9","639","1","7","1","58","1","1562583106","1562583051","241","[100,17,77,42,41]","250"
"10","657","1","7","1","23","1","1562583287","1562583051","241","[18,84,85,72,17,8,79,38,12,52,6,22,43,71,46,70,47,24,80,61]","-390"
"11","667","1","7","1","28","1","1562583260","1562583051","241","[63,98,23,96,5,37,62,11,33,71]","330"
"12","681","1","7","1","72","1","1562583292","1562583051","241","[1,51,85,83,16,66,90,57,74,91,11,100,63,4,19,96,68,10,49]","250"
"13","608","1","7","1","87","1","1562583285","1562583051","241","[26,16,5,43,96,97]","250"
"14","694","1","7","1","52","1","1562583291","1562583051","241","[76,25,31,69,90,73,24,94,58,22,65,8,97,86,1,71,61,88,46,33,47,91,4,48]","-150"
"15","625","1","7","1","67","1","1562583283","1562583051","241","[27,18,89,81,3,19,42,24,77,36,65,53,33,25,26,4,14,52,6,37,7,13,94,28,48,98]","-230"
"16","688","1","7","1","82","1","1562583250","1562583051","241","[98,15,85,10,71,45,76,17,61,47,13,99]","-230"
"17","605","1","7","1","68","1","1562583237","1562583051","241","[17,63,16,85,8,19,29,57,93,40,89,70,91,100,74,49,4]","-230"
"18","680","1","7","1","56","1","1562583287","1562583051","241","[24,81,52,14,67,40,10,90,70,80,82,4]","170"
"19","619","1","7","1","31","1","1562583288","1562583051","241","[72,22,52,68,76,32]","250"
"20","683","1","7","1","10","1","1562583291","1562583051","241","[64,26,85,18,82,99,13,98,17,49,56,9,41,97]","-550"
"21","665","1","7","1","61","1","1562583290","1562583051","241","[100,75,37,59,60,39,1,83,18,30,48,99,66,88,52,17,46,3,42,34,45,91,38,86,41,85,90,31,23,82]","-310"
"22","632","1","7","1","25","1","1562583288","1562583051","241","[11,37,44,13]","250"
"23","643","1","7","1","26","1","1562583291","1562583051","241","[48,10,9,55,75,7,95,13,61,17,84,67,18,85,89,93]","-310"
"24","670","1","7","1","99","1","1562583291","1562583051","241","[40,41,83,86,57,48,54,10,65,35,81,71,55,89,19,26,76,46,8,18,79,45]","-390"
"25","672","1","7","1","47","1","1562583290","1562583051","241","[8,1,51,46,99,37,78,60,34,41,32,40,63,83,5,66,85,15,86,22,62,71,80,45,42,6,43,61,82,3,13,20,92,7,25,100,11,35,2,54,36,53,28,88,73,52,30,87,16,74,19,89]","-950"
"26","656","1","7","1","97","1","1562583291","1562583051","241","[21,60,37,78,64,79,100,80,16,71,17,41,63,59,87,91,84,4,1,10,62,20,93,33,77,8]","-390"
"27","648","1","7","1","14","1","1562583292","1562583051","241","[37,25,28,52,79,8,49,96,91,4,11,5,60,41,83,56,63]","170"
"28","649","1","7","1","93","1","1562583292","1562583051","241","[8,100,59,68,22,49,20,13,96,76,98,75,89]","-550"
"29","676","1","7","1","54","1","1562583289","1562583051","241","[98,2,33,35,94,14,28,44]","250"
"30","603","1","7","1","53","1","1562583284","1562583051","241","[50,67,27,70]","170"
"31","686","1","7","1","65","1","1562583289","1562583051","241","[23,40,80,50,84,67,17,52,99,34,8,3,79,77,95]","10"
"32","678","1","7","1","27","1","1562583288","1562583051","241","[95,53,28,59,52]","330"
"33","638","1","7","1","17","1","1562583288","1562583051","241","[64,58,51,71,23,61,69,99,32,34,1,72,78,41,42,83,54,65,82,33,25,26,75,39,68,74,49,66,97,10,91,4,100,11,35,7,81,79,18,14,2,55]","-1270"
"34","624","1","7","1","1","1","1562583272","1562583051","241","[72,34,78,58,40,22,47,66,17,97]","10"
"35","604","1","7","1","75","1","1562583269","1562583051","241","[84,98,61,44,92,93,49,19,26,36,60,81,79,17,76]","-150"
"36","647","1","7","1","81","1","1562583285","1562583051","241","[15,35,31,84,79,61,98,65,99,7,13]","170"
"37","628","1","7","1","34","1","1562583283","1562583051","241","[100,1,38,51,78,58,42,5,63,72,84,40,4,86]","90"
"38","679","1","7","1","18","1","1562583290","1562583051","241","[74,17,10,26,77,42,52,88,43,45,73,48,40,1]","90"
"39","663","1","7","1","7","1","1562583284","1562583051","241","[72,74,89,2,11,91,6,94,64,63,49,90,9,92]","170"
"40","671","1","7","1","46","1","1562583290","1562583051","241","[56,79,84,66,17,78,86,51,54,24,61,43,60,47,72,5,31,73,21,97,52,95,28,94,25,37,80,1,69,12,77,23,99,13,27,62,42,53,29]","-630"
"41","630","1","7","1","2","1","1562583283","1562583051","241","[9,20,98,51,90,48,17,43,82,78,67,7,96,54,81,84,36,50,13,47,42]","-230"
"42","695","1","7","1","96","1","1562583289","1562583051","241","[13,66,87,41,5,93,74,89,19,49,83,84,20,10]","-310"
"43","690","1","7","1","15","1","1562583285","1562583051","241","[85,8]","330"
"44","646","1","7","1","42","1","1562583290","1562583051","241","[76,84,72,35,88,40,79,87,13,41,78,86,96,58,54,48,17,70,60,90,6,34,47,32,38,18,74,61,20,9,67,91,31,8,2,36,97,12,59,46,85,43,49,81]","-1270"
"45","692","1","7","1","89","1","1562583285","1562583051","241","[36,24,76,78,86,74,26,11,20,84,93]","170"
"46","633","1","7","1","33","1","1562583287","1562583051","241","[8,79,98,62,28,9]","10"
"47","636","1","7","1","88","1","1562583278","1562583051","241","[50,32,48,8,35,79]","170"
"48","654","1","7","1","76","1","1562583290","1562583051","241","[31,50,24,17,90,66,69,18,54,57,100,91,5,85,47,42,56,81,14,93,40,59,79,67,61,43,99,45]","-150"
"49","637","1","7","1","71","1","1562583291","1562583051","241","[85,13,89,17,95,47,82,8,91,99,62,90]","-230"
"50","655","1","7","1","4","1","1562583287","1562583051","241","[51,56,34,78,1,33,72,24,71,59]","250"
"51","700","1","7","1","59","1","1562583288","1562583051","241","[40,16,61,17,29,93,13,33,8,49]","10"
"52","682","1","7","1","49","1","1562583271","1562583051","241","[94,22,1,12,83,17,66,93,87,16,60,63,59,90,97,74,89,61,57,3,13,48,19,68,8,40,29,62,91,75,10,82,79,96,15,86,85,42,80]","-630"
"53","684","1","7","1","8","1","1562583289","1562583051","241","[41,99,17,40,79,18,43,58,77,20,14,48,33,37,22,68,74,28,97,32,88,72,91,93,56,71,59,44,3,15,100,84,57,90,21,39,30,61,31,83,60,5,96,65,95,73,70,24,64,1,62,16,38,19,86,66,6,12,78,23,47,42,52,13,63,27,50,98]","-1990"
"54","618","1","7","1","57","1","1562583279","1562583051","241","[13,37,68,74,84]","330"
"55","697","1","7","1","98","1","1562583292","1562583051","241","[18,67,82,28,95,54,50,81,79,11,33,44,31,73,94,61,85,74,57,1,45,40,9,55,93,41,15,21,97,69,84,8,99,6,12]","-630"
"56","610","1","7","1","5","1","1562583284","1562583051","241","[8,76]","330"
"57","693","1","7","1","35","1","1562583261","1562583051","241","[8,1,22,94,32,12,49,33,37,50,11,62,18,52,45,15,88,55]","90"
"58","612","1","7","1","64","1","1562583286","1562583051","241","[1,21,97,10,85,51,89,84,66,86]","10"
"59","687","1","7","1","62","1","1562583271","1562583051","241","[8,17,47,59,19,40,99,64,29,49,51,41,33,86,87,16,85,71,90,46,52]","10"
"60","611","1","7","1","95","1","1562583290","1562583051","241","[15,9,98,45,33,4,71,22,79,27,5,28,73,69]","90"
"61","634","1","7","1","44","1","1562583292","1562583051","241","[37,8,40,47,75,67,18,76,92,7,50,81,98,95,84,82,88,25,17,13,20,73,97,54]","-230"
"62","650","1","7","1","13","1","1562583291","1562583051","241","[58,16,48,71,54,91,93,81,57,42,88,79,74,59,40,66,10,18,76,4,90,22,85,21,70,8,84,67,44,9,26,30,38,51,47,96,25,50,61,82,62,97,49,60,35,77,99,32,39,46,41,56,2,92,7,14,94,52,43,6,69,17,53,31,12,34]","-1510"
"63","660","1","7","1","73","1","1562583289","1562583051","241","[48,7,52,1]","330"
"64","641","1","7","1","45","1","1562583292","1562583051","241","[66,96,41,48,54,84,86,3,70,79,82,8,99]","90"
"65","673","1","7","1","94","1","1562583280","1562583051","241","[47,35,28,7]","330"
"66","675","1","7","1","80","1","1562583292","1562583051","241","[21,60,12,86,52,15,88,57,47,27,41,6,90,37,46]","90"
"67","631","1","7","1","74","1","1562583286","1562583051","241","[48,99,96,37,5,58,19,73]","330"
"68","622","1","7","1","19","1","1562583279","1562583051","241","[74,20,96,84,89,91,40]","170"
"69","615","1","7","1","29","1","1562583291","1562583051","241","[85,51,16,94,87,57,60,5,72,4,68]","250"
"70","651","1","7","1","70","1","1562583276","1562583051","241","[23,68,42,13,76,45,8,91,53,6,56]","-310"
"71","621","1","7","1","92","1","1562583291","1562583051","241","[100,63,75,74,8,61,48,44,67,98,69,7,83,11]","170"
"72","620","1","7","1","51","1","1562583287","1562583051","241","[17,64,40,99,47,46,37,32,21,89,74,87,29]","90"
"73","658","1","7","1","100","1","1562583292","1562583051","241","[14,97,69,92,20,57,4,93,11]","90"
"74","664","1","7","1","36","1","1562583287","1562583051","241","[85,67,12,87,50,95,48]","330"
"75","614","1","7","1","24","1","1562583284","1562583051","241","[91,78,64,21,34,32,12,69,79,58,31,80]","170"
"76","645","1","7","1","3","1","1562583206","1562583051","241","[47,64,67,78,30,55]","250"
"77","669","1","7","1","55","1","1562583284","1562583051","241","[35,79,3,99,26,9,17,98,18,34]","-150"
"78","653","1","7","1","91","1","1562583292","1562583051","241","[1,37,89,74,29,5,50,78,99,47,34,51,21,84,60,54,68,49,90,22,42,80,70,17,85,40]","-150"
"79","662","1","7","1","41","1","1562583291","1562583051","241","[96,18,30,10]","330"
"80","691","1","7","1","69","1","1562583286","1562583051","241","[33,12,17]","330"
"81","677","1","7","1","78","1","1562583291","1562583051","241","[8,48,74,100,46,99,72,85,42,37,24]","170"
"82","685","1","7","1","84","1","1562583281","1562583051","241","[63,24,78,100,69,41,27,96,49,11,37,16,31,89,7,35,30,62,97,47,86,99,66,52,56,54]","170"
"83","689","1","7","1","11","1","1562583291","1562583051","241","[33,20,61,19,26,25,14,4,100,59]","170"
"84","699","1","7","1","6","1","1562583290","1562583051","241","[85,9,34,14,30,5,17,70,23,38,47,78,97,64,32,21,8,80,3,22,42,84,39,71,15,86,12,69,51,58,66]","-310"
"85","661","1","7","1","21","1","1562583280","1562583051","241","[97,79,17,82,64,38,22,54,40,86,5]","170"
"86","668","1","7","1","85","1","1562583289","1562583051","241","[71,90,84,47,23,15,10,66,51,99,40,86,16,87,34,6,64,31,82,52,76,81,26,11,68,74,32,77,72,79]","-790"
"87","652","1","7","1","66","1","1562583290","1562583051","241","[8,100,46,24,96,21,40,51,83,79,41,18,33]","90"
"88","602","1","7","1","38","1","1562583210","1562583051","241","[34,24,30,21,6,29,22,35,32,23,12,84,42,13]","-150"
"89","629","1","7","1","50","1","1562583279","1562583051","241","[76,36,65,53,35,44,98,2,91,88,13,78]","-390"
"90","609","1","7","1","77","1","1562583290","1562583051","241","[31,58,35,79,15,84,40,8,18,94,97,19,67,71,95,13,46,85]","-230"
"91","613","1","7","1","32","1","1562583289","1562583051","241","[18,31,17,78,42,71,24]","170"
"92","601","1","7","1","16","1","1562583286","1562583051","241","[74,56,58,5,29,53,28,25,87]","330"
"93","623","1","7","1","30","1","1562583292","1562583051","241","[99,58,39,78,1,61,43,31,38,6]","250"
"94","606","1","7","1","79","1","1562583279","1562583051","241","[8,37,17,78,18,21,40,23,84,80,64,24,96,66,77,27,98,30,49,11,91,55,33,73,31,6,15,5,52,81,22,45,34,1,95,46,88,36,75,28,72,60,99,14,26,63]","-1190"
"95","626","1","7","1","22","1","1562583288","1562583051","241","[79,93,35,4,95,3,1,61]","90"
"96","617","1","7","1","20","1","1562583285","1562583051","241","[9,19,93,3,2,4,94,79,100,84,37,47,8,39,11,42,89,44,97,96]","-550"
"97","640","1","7","1","90","1","1562583287","1562583051","241","[89,85,66,40,80,16,21,97,67,84,29,18,9,94,28,69,92]","250"
"98","616","1","7","1","39","1","1562583277","1562583051","241","[73,37,11,13,6]","330"
"99","627","1","7","1","9","1","1562583290","1562583051","241","[13,84,79,81,26,4,67,2,90,8,17,20,55,10,42,7,98,33]","-390"
"100","644","1","7","1","37","1","1562583051","1562583051","241","[]","0"
"101","690","2","7","1","27","1","1562583825","1562583689","241","[89,55,13]","317.5"
"102","681","2","7","1","45","1","1562583911","1562583689","241","[84,76,48,91,62,50,21,92,58,93,40,99,22,63,15,26,94]","157.5"
"103","611","2","7","1","61","1","1562583918","1562583689","241","[48,8,17,58,99,25,32,70,88,20,84,73,72,95,47,12,94,49,98]","317.5"
"104","614","2","7","1","100","1","1562583915","1562583689","241","[1,99,84,8,21,46,61,50,93,63,67,45,66,87,91]","157.5"
"105","612","2","7","1","16","1","1562583905","1562583689","241","[49,100,56,85,76,1,63,81,45,70,60,67]","317.5"
"106","636","2","7","1","14","1","1562583914","1562583689","241","[45,56,74]","242.9"
"107","607","2","7","1","32","1","1562583905","1562583689","241","[22,19,71,61,13,20]","237.5"
"108","632","2","7","1","25","1","1562583903","1562583689","241","[56,73]","317.5"
"109","634","2","7","1","53","1","1562583917","1562583689","241","[76,22,29,50,81,33,96,80,28,78]","317.5"
"110","606","2","7","1","59","1","1562583911","1562583689","241","[81,49,13,94,17,53,34,66,52,86,39,47,12,11,23,27]","157.5"
"111","631","2","7","1","76","1","1562583918","1562583689","241","[46,42,47,1,13,63,39,56,10,88]","317.5"
"112","610","2","7","1","37","1","1562583848","1562583689","241","[66,43]","317.5"
"113","623","2","7","1","79","1","1562583918","1562583689","241","[52,7,18,47,13,20]","237.6"
"114","616","2","7","1","17","1","1562583895","1562583689","241","[15,72,36,32,45,82,44,93,50,80]","237.5"
"115","603","2","7","1","4","1","1562583910","1562583689","241","[19,73,59,43,56]","157.5"
"116","628","2","7","1","39","1","1562583900","1562583689","241","[51,67,97,20]","242.9"
"117","605","2","7","1","68","1","1562583916","1562583689","241","[8,80,76,93,85,69,71,37,57,87,17,44]","157.5"
"118","615","2","7","1","50","1","1562583916","1562583689","241","[1,80,58,13,45,91]","317.5"
"119","629","2","7","1","35","1","1562583908","1562583689","241","[36,31,24,45,38,42,96,83,74,19,60,51,67,90,56]","-242.5"
"120","624","2","7","1","78","1","1562583917","1562583689","241","[71,88,37,76,93,84,87,45,31,73,80,60,82,56,75]","77.5"
"121","608","2","7","1","66","1","1562583917","1562583689","241","[93,41,49,8,99,37,87]","317.5"
"122","620","2","7","1","40","1","1562583911","1562583689","241","[1,100,49,61,71,95,28,63]","317.5"
"123","622","2","7","1","8","1","1562583893","1562583689","241","[49,70,50,71,56]","165.9"
"124","602","2","7","1","7","1","1562583913","1562583689","241","[79,3,76,17,56,19,74,16,61,87,89,60,73,9,97,100,59,33,42,2,53,80]","77.5"
"125","618","2","7","1","3","1","1562583895","1562583689","241","[37,54,75,18,56,1,74]","317.5"
"126","609","2","7","1","82","1","1562583917","1562583689","241","[36,60,52,74,71,67,51,57,48,62,70,17,78]","77.5"
"127","619","2","7","1","77","1","1562583916","1562583689","241","[18,5,25,19,38,1]","242.9"
"128","621","2","7","1","98","1","1562583891","1562583689","241","[88,5,54]","317.5"
"129","642","2","7","1","26","1","1562583909","1562583689","241","[19,72,48,41,95,40,54,86,56,94,14,81,76]","157.5"
"130","601","2","7","1","89","1","1562583916","1562583689","241","[27,67,46,47,16,73,30,13,62]","237.6"
"131","637","2","7","1","23","1","1562583867","1562583689","241","[79,56,97,89,59,48]","317.5"
"132","626","2","7","1","46","1","1562583897","1562583689","241","[17,100,93,70,34,41,91,8,40,21,13]","477"
"133","644","2","7","1","13","1","1562583689","1562583689","241","[]","0"
"134","617","2","7","1","28","1","1562583903","1562583689","241","[67,11,88,40,87,44,45,83,85,50,74,30,13,53,47,98,5,63,86,15,78,31,95,73]","77.5"
"135","635","2","7","1","43","1","1562583903","1562583689","241","[15,76,24,31,88,19,74,98,94,80,62,60,37,54,4,29,5,85,56,100,69]","-2.4"
"136","640","2","7","1","38","1","1562583909","1562583689","241","[24,35,79,47,9,90,8,13,98,43,40,17,59,89]","157.5"
"137","604","2","7","1","55","1","1562583907","1562583689","241","[76,64,27,11,65,48,21,84]","157.5"
"138","613","2","7","1","34","1","1562583851","1562583689","241","[59,51]","317.5"
"139","700","2","7","1","92","1","1562583918","1562583689","241","[71,59,63,56,19]","317.5"
"140","625","2","7","1","87","1","1562583903","1562583689","241","[8,17,99,91,57,63,46,86,69,10,37,79,3,66,88,13,61]","237.6"
"141","698","2","7","1","54","1","1562583900","1562583689","241","[42,88]","317.5"
"142","688","2","7","1","29","1","1562583912","1562583689","241","[97,74,65,36,83,20]","157.5"
"143","680","2","7","1","31","1","1562583916","1562583689","241","[72,36,64,97,67,69,84,27,8,49,65,35,56]","317.5"
"144","675","2","7","1","2","1","1562583916","1562583689","241","[100,66,16,87,92,84,1,47,81,68,31,73,13,58,97,39,88,27,49,63,60,65]","317.5"
"145","694","2","7","1","42","1","1562583916","1562583689","241","[35,58,79,80,24,47,75,54,59,65,73,7,14,4]","-2.4"
"146","630","2","7","1","48","1","1562583917","1562583689","241","[15,30,46,23,96,69,68,11,94,55,27,21,13,66,59,87]","157.5"
"147","685","2","7","1","93","1","1562583897","1562583689","241","[1,48,21,46,63]","237.6"
"148","654","2","7","1","74","1","1562583916","1562583689","241","[98,36,54,35,29,15,45,71,84,3,96,83,87,56,60,5,66,7]","-82.5"
"149","692","2","7","1","36","1","1562583897","1562583689","241","[76,43,74,65]","317.5"
"150","641","2","7","1","47","1","1562583914","1562583689","241","[94,73]","242.9"
"151","649","2","7","1","90","1","1562583918","1562583689","241","[38,24]","317.5"
"152","686","2","7","1","75","1","1562583910","1562583689","241","[56,71,18,93,45,52,42,97,3,96,14,61,78,2,6,5,54,34,33,59,9,69,80,51,74,89]","-642.4"
"153","661","2","7","1","86","1","1562583903","1562583689","241","[37,19,93,46,33,57,88,72]","237.6"
"154","673","2","7","1","99","1","1562583880","1562583689","241","[57,71,100,63]","317.5"
"155","653","2","7","1","81","1","1562583909","1562583689","241","[36,56,8,67,80,59,100,70,14]","317.5"
"156","663","2","7","1","30","1","1562583909","1562583689","241","[15,24,56,71,8,77,87,48,68,83,84,57,89,23,34,39,59,10]","237.5"
"157","658","2","7","1","15","1","1562583910","1562583689","241","[72,18,56,54,4,37,95,61]","317.5"
"158","647","2","7","1","91","1","1562583912","1562583689","241","[8,48,99,63,46,86,50,53,13,59,98,100,57,67]","237.6"
"159","659","2","7","1","18","1","1562583912","1562583689","241","[58,64,25,47,84,17,75,46,10,79]","317.5"
"160","678","2","7","1","10","1","1562583918","1562583689","241","[87,60]","317.5"
"161","684","2","7","1","9","1","1562583915","1562583689","241","[1,97,49,6,7,27,23,59,34,20,51,50,91,17,68,75,48,80,55,38,62]","-82.5"
"162","682","2","7","1","60","1","1562583898","1562583689","241","[10,18,54,22,26,99,56,87,16,67,2,64,3]","77.5"
"163","687","2","7","1","88","1","1562583909","1562583689","241","[98,60,1,57,76,45,86,96,73,54,56,33,94,15,72,16,63,99,93]","-162.5"
"164","643","2","7","1","33","1","1562583918","1562583689","241","[22,53,75,58,56,16,88,73]","-2.4"
"165","672","2","7","1","96","1","1562583904","1562583689","241","[100,1,8,17,35,63,57,88]","237.6"
"166","676","2","7","1","72","1","1562583915","1562583689","241","[26,32,88,77,86]","237.6"
"167","667","2","7","1","97","1","1562583917","1562583689","241","[15,42,51,52,93,17,3,47,13,1,75,76]","317.5"
"168","670","2","7","1","73","1","1562583913","1562583689","241","[8,17,100,19,70,48,15,84,57,76,78,46,30,71,32,25,36,90,4,47,1,92,81,62,56,34,55,65,79,29,24,40,85,28,63,37,43,33]","-3"
"169","651","2","7","1","69","1","1562583916","1562583689","241","[67,75,48,68]","237.6"
"170","696","2","7","1","57","1","1562583918","1562583689","241","[37,87,68,23,81,30]","237.6"
"171","648","2","7","1","20","1","1562583916","1562583689","241","[29,32,79,9,1,96,8,58,2]","157.5"
"172","633","2","7","1","80","1","1562583914","1562583689","241","[76,45,71,89,60,17,74,78,61,68,75,3,43,9,42,66,39]","-82.5"
"173","627","2","7","1","95","1","1562583902","1562583689","241","[32,56,67,26,15,31,2]","237.6"
"174","657","2","7","1","6","1","1562583918","1562583689","241","[9,1,38,49,75,88,51,89,11,92,10,97,2,3,48,43,65,7,20,36]","157.5"
"175","639","2","7","1","12","1","1562583902","1562583689","241","[8,72,47,97,65,13,11]","317.5"
"176","668","2","7","1","71","1","1562583915","1562583689","241","[75,21,17,39,46,38,13,74,61,5,47,40]","237.6"
"177","674","2","7","1","22","1","1562583914","1562583689","241","[76,23,47,70,84,92,77,21,59,100,60]","317.5"
"178","669","2","7","1","85","1","1562583898","1562583689","241","[67,61,16,45,3,81,58,70,56,28,49,73]","-2.4"
"179","671","2","7","1","21","1","1562583909","1562583689","241","[1,93,40,13,23,49,45,47,77,41,8,63,95]","793.4"
"180","655","2","7","1","41","1","1562583911","1562583689","241","[80,61,50,91,46]","242.9"
"181","679","2","7","1","5","1","1562583910","1562583689","241","[26,49,85,70,77,24,79,18,98,45,55,86,74,36,54,20,1]","397"
"182","666","2","7","1","52","1","1562583850","1562583689","241","[12,51,75]","317.5"
"183","638","2","7","1","64","1","1562583918","1562583689","241","[84,42,90,74,52,43,60,10,36,16,17,67,40,14,69,11,44,57,79,12,65,89,63,61,4,33,92,19,88]","237.6"
"184","695","2","7","1","65","1","1562583907","1562583689","241","[36,8,1,12,52,3,55,2,29,90,42,64,6]","-162.5"
"185","662","2","7","1","1","1","1562583918","1562583689","241","[26,84,29,25,32,82,43,94,37,87,30,81,72,19,31,8,98,47,49,96,5,88]","157.5"
"186","664","2","7","1","58","1","1562583917","1562583689","241","[61,33,53,62,94]","237.6"
"187","645","2","7","1","49","1","1562583871","1562583689","241","[8,21,46]","406.7"
"188","691","2","7","1","11","1","1562583915","1562583689","241","[47,55,12,13,27,90,59]","237.5"
"189","660","2","7","1","83","1","1562583918","1562583689","241","[8,81,37,35,56,92,40,63,93,48,55,29]","317.5"
"190","683","2","7","1","24","1","1562583888","1562583689","241","[38,49,8,17,79,80,37,20,66,90,35,5,74,54,29]","157.5"
"191","646","2","7","1","51","1","1562583918","1562583689","241","[97,82,39,6,34,52,17,9,35,20,75,68,83]","77"
"192","693","2","7","1","84","1","1562583712","1562583689","241","[22,45]","317.5"
"193","699","2","7","1","19","1","1562583915","1562583689","241","[72,37,74,32,26,97,93,94,82,43,73,76,17,86,35,60,16,70,98,92,5,49,7,56,31,4,39,71,14,62,1]","-402.4"
"194","677","2","7","1","67","1","1562583909","1562583689","241","[36,63,24,97,100,85,17,88,37,72,13,41]","317.5"
"195","697","2","7","1","44","1","1562583915","1562583689","241","[97,13,15,52,21,48,56,29,53,28,31,64,68,84,17]","77.5"
"196","665","2","7","1","56","1","1562583912","1562583689","241","[48,75,97,19,25,82,1,76,73,31,5,57,33,17,50,100,92,66,94,70,58,41,46,14,26,95,72,85,22,99,44,64,42,38,24,62,4,49,15,45,93,40,63,53,78,71]","-642.9"
"197","689","2","7","1","63","1","1562583914","1562583689","241","[48,80,26,93,99,81,22,84,25]","317.5"
"198","650","2","7","1","70","1","1562583917","1562583689","241","[1,37,57,76,93,49,99,21,85,82,71,15,48,32,91,20,92,45,100,81,84,95,26,60,63,59,40,53,23,87,10,2]","237.6"
"199","656","2","7","1","62","1","1562583915","1562583689","241","[17,37,97,89,43,74,65,44,24,73,5,82,56]","77.5"
"200","652","2","7","1","94","1","1562583917","1562583689","241","[58,8,63,46,32,92,73,90,17,41,53,100,56,43,45]","157.5"
"201","616","3","7","1","2","1","1562584409","1562584155","229","[84,25]","321.7"
"202","692","3","7","1","62","1","1562584417","1562584155","229","[76,67,38,60,34,55,63,96]","168"
"203","698","3","7","1","90","1","1562584367","1562584155","229","[47,40]","321.7"
"204","654","3","7","1","38","1","1562584417","1562584155","229","[17,49,80,21,61,94,51,15,64,14,23,3,1]","161.7"
"205","700","3","7","1","78","1","1562584354","1562584155","229","[5,64]","321.7"
"206","666","3","7","1","43","1","1562584417","1562584155","229","[47,21]","321.7"
"207","620","3","7","1","27","1","1562584407","1562584155","229","[16,73]","321.7"
"208","639","3","7","1","50","1","1562584394","1562584155","229","[67,83,65,34,5,53,37]","321.7"
"209","628","3","7","1","4","1","1562584408","1562584155","229","[15,49,9]","241.7"
"210","690","3","7","1","68","1","1562584419","1562584155","229","[61,39,37,65]","321.7"
"211","612","3","7","1","42","1","1562584415","1562584155","229","[91,69,45,21,22,67,79]","241.7"
"212","667","3","7","1","53","1","1562584411","1562584155","229","[84,3,15,38,80,34,61,86,88,31,12]","321.7"
"213","653","3","7","1","20","1","1562584406","1562584155","229","[36,11,92,3,81,12]","321.7"
"214","662","3","7","1","13","1","1562584412","1562584155","229","[36,74,91,15,52,51,49,18,84,54,88,34,62,65,30,75,31,67,28,72,82,99,79]","321.7"
"215","680","3","7","1","31","1","1562584419","1562584155","229","[54,23,59,58,51,17,11,36,81]","321.7"
"216","631","3","7","1","98","1","1562584342","1562584155","229","[78,74,81,72,13]","411.7"
"217","648","3","7","1","26","1","1562584375","1562584155","229","[84,96,29]","321.7"
"218","614","3","7","1","75","1","1562584416","1562584155","229","[28,48]","321.7"
"219","609","3","7","1","17","1","1562584415","1562584155","229","[96,55,58,69,43]","245.7"
"220","621","3","7","1","54","1","1562584385","1562584155","229","[36,8,67,94,88,42]","321.7"
"221","660","3","7","1","41","1","1562584413","1562584155","229","[60,23,61,35,80,89,88,85,18,13,21,96]","321.7"
"222","634","3","7","1","33","1","1562584417","1562584155","229","[31,17,41,94,22,23,16,96,59]","241.7"
"223","606","3","7","1","19","1","1562584418","1562584155","229","[21,30,37,47,34,85,92,18,94,96,26,56,41,44,40,82,45,3,87]","161.7"
"224","647","3","7","1","25","1","1562584411","1562584155","229","[38,80,76,32,40,31,5,20,2,66,71,44]","241.7"
"225","640","3","7","1","73","1","1562584369","1562584155","229","[71,24,27,46,61,34,30,53,74,54,96]","241.7"
"226","623","3","7","1","52","1","1562584352","1562584155","229","[61,15,57]","321.7"
"227","697","3","7","1","47","1","1562584396","1562584155","229","[90,26,19,51,43,15,44,61]","241.7"
"228","685","3","7","1","70","1","1562584418","1562584155","229","[8,37,58,85,42,80,76,94]","241.7"
"229","608","3","7","1","63","1","1562584372","1562584155","229","[60,31,28,51,62]","411.7"
"230","632","3","7","1","8","1","1562584284","1562584155","229","[3,25,22]","321.7"
"231","622","3","7","1","45","1","1562584403","1562584155","229","[49,90,20,63,4,96,14,85,80,17,97]","321.7"
"232","673","3","7","1","88","1","1562584410","1562584155","229","[8,21,98,78,25,61,73,54,34,53]","564"
"233","663","3","7","1","59","1","1562584412","1562584155","229","[72,18,99,14,55,26,22,61,15,95,69,33,42,17]","81.7"
"234","637","3","7","1","30","1","1562584414","1562584155","229","[58,79,65,11]","321.7"
"235","656","3","7","1","81","1","1562584308","1562584155","229","[75,13,63,31,65,98,3,20,5,25,84,6]","562.5"
"236","636","3","7","1","39","1","1562584410","1562584155","229","[96,7,95]","321.7"
"237","672","3","7","1","32","1","1562584417","1562584155","229","[17,26,76,21,52,94,54,61,34]","321.7"
"238","684","3","7","1","100","1","1562584366","1562584155","229","[17,36,57,70,32,72,89,96,76,69,49,55,94,45,42,61,80]","321.7"
"239","689","3","7","1","34","1","1562584418","1562584155","229","[38,43,37,85,88,4,26]","245.7"
"240","618","3","7","1","80","1","1562584412","1562584155","229","[58,76,81]","321.7"
"241","671","3","7","1","37","1","1562584415","1562584155","229","[71,21,49,38,94,45,52,92,61,35,44,53,27,86,68,56,50,99,90,40,25,87]","1.7"
"242","687","3","7","1","49","1","1562584417","1562584155","229","[42,64,14,1,21,15,6,93,4,23,59,47,36,94,41,51,29,26,33,78,22,67,8,9,96,77,52,91,55,61,32,76,58,70,18,34,88]","-78.3"
"243","679","3","7","1","14","1","1562584408","1562584155","229","[24,59,90,95,47,40,51,29,48,45,61,94,35,21]","161.7"
"244","617","3","7","1","11","1","1562584419","1562584155","229","[20,10,7,42,33,6,25,12,5,60,93,80,61,40,37,13,24,17,89,15,22,69,96,32,58,21,85,70,90,84,51,77,55,26,83,30,27,73,4,18,76,19,47,43,53,52,9,34,31,62]","-318.3"
"245","610","3","7","1","89","1","1562584330","1562584155","229","[91,61]","321.7"
"246","686","3","7","1","58","1","1562584400","1562584155","229","[43,70,54,94,80,92,17,61,27,21,36,55,29]","324"
"247","619","3","7","1","55","1","1562584419","1562584155","229","[18,59,100]","321.7"
"248","652","3","7","1","69","1","1562584419","1562584155","229","[1,8,22,80,21,91,26,57,60,15,84,10,25,73,19,68,36,70]","245.7"
"249","669","3","7","1","93","1","1562584388","1562584155","229","[51,1,29,49,15,60,11,12,6,84,23,64]","-158.3"
"250","665","3","7","1","15","1","1562584419","1562584155","229","[48,39,4,73,94,21,55,52,23,37,90,25,30,79,60,65,17,45,20,63,8,51,74,98,62,5,77,38]","1.7"
"251","670","3","7","1","60","1","1562584418","1562584155","229","[4,80,57,58,90,32,33,93,15,13,59,14,26,45,43,55,36,16,3,48,12,97,22,10,46,95]","81.7"
"252","644","3","7","1","66","1","1562584418","1562584155","229","[80,53,70,44,12,56,83,37,2,25,48,84]","81.7"
"253","613","3","7","1","99","1","1562584234","1562584155","229","[83,3,16]","321.7"
"254","658","3","7","1","40","1","1562584418","1562584155","229","[64,36,42,90,73,99,46,25]","321.7"
"255","675","3","7","1","74","1","1562584418","1562584155","229","[71,80,26,15,96,88,6,34,13]","241.7"
"256","655","3","7","1","36","1","1562584324","1562584155","229","[99,100,92]","321.7"
"257","696","3","7","1","82","1","1562584415","1562584155","229","[71,31,57,26,21,8,88,22,67,83,53,56,79,28]","241.7"
"258","611","3","7","1","96","1","1562584417","1562584155","229","[32,42,84,85,26,55,61,76,57]","321.7"
"259","651","3","7","1","86","1","1562584417","1562584155","229","[19,5,40,87,24,56,37]","241.7"
"260","691","3","7","1","35","1","1562584408","1562584155","229","[37,53,71]","321.7"
"261","643","3","7","1","77","1","1562584411","1562584155","229","[42,19,57,34,27,31,60,86,39,11,67,81,6,49,23,95,93]","81.7"
"262","615","3","7","1","57","1","1562584419","1562584155","229","[1,21,37,80,94,34,73,61,42,26,68,96,62,52]","321.7"
"263","694","3","7","1","83","1","1562584321","1562584155","229","[50,72,99,82,66]","161.7"
"264","604","3","7","1","48","1","1562584403","1562584155","229","[75,69,94,92,66,87]","241.7"
"265","674","3","7","1","9","1","1562584418","1562584155","229","[61,18,7,4,23,86,22,80,1,54,33,49]","81.7"
"266","664","3","7","1","18","1","1562584418","1562584155","229","[17,37,12,10,41,38,74,8,1,9]","321.7"
"267","607","3","7","1","16","1","1562584414","1562584155","229","[44,86,27,12,94,34,96]","241.7"
"268","645","3","7","1","21","1","1562584395","1562584155","229","[76,85,47,80,43,69]","564.1"
"269","602","3","7","1","84","1","1562584415","1562584155","229","[15,35,31,7,54,19,45,43,47,93,20,39,37,42,2,99,51,6,11,65,5,1,10,66,14,97,61,56,58,23,16,91]","-158.3"
"270","682","3","7","1","65","1","1562584419","1562584155","229","[63,81,67,30,97,45,46,16,100,68,28,12,79,29,94]","-78.3"
"271","601","3","7","1","79","1","1562584417","1562584155","229","[42,73,18,92,61,34,62,20,25,31,7,90,65]","321.7"
"272","642","3","7","1","12","1","1562584418","1562584155","229","[11,22,13,6,93,53,66,16,59,60]","-78.3"
"273","605","3","7","1","71","1","1562584409","1562584155","229","[43,56,82,83,72,2,53,35,40,73,3,75,87,48]","81.7"
"274","693","3","7","1","44","1","1562584365","1562584155","229","[16,53,41,19]","321.7"
"275","638","3","7","1","3","1","1562584418","1562584155","229","[72,37,19,8,50,99,69,45,100,57,24,97,71,84,25,22,41,26,51,31,90,27,36,94,44,89,14,77,64,52,49,78,6,38,1,79,65,13,28,10,43,21,16,59,58,76,32,61,80]","-398.3"
"276","646","3","7","1","6","1","1562584419","1562584155","229","[9,38,64,18,49,85,37,91,96,93,31,15,78,14,23,29,12,11,81,45,60,4,74,3,8,77,84,54,51,67,42]","-478.3"
"277","629","3","7","1","28","1","1562584412","1562584155","229","[75,5,63,84,13,95,65,3]","562.5"
"278","678","3","7","1","7","1","1562584409","1562584155","229","[12,78,15,3,39,84,86,68,54]","321.7"
"279","624","3","7","1","87","1","1562584416","1562584155","229","[36,70,61,32,46,94,72,57,82,68,19,37,25,75,2,71]","241.7"
"280","650","3","7","1","23","1","1562584419","1562584155","229","[17,1,58,76,41,40,21,43,85,26,49,33,9,14,4,59,96,91,60,52,57,77,34,7,6]","1.7"
"281","668","3","7","1","1","1","1562584416","1562584155","229","[89,83,32,70,80,44,34,61,21,13,8,38,96,45,86,2,48,82,37,88,4,95,43,62,3]","241.7"
"282","630","3","7","1","97","1","1562584414","1562584155","229","[23,70,32,75,46,39,86,59,90,15,45,9,84,25,65,60]","81.7"
"283","635","3","7","1","91","1","1562584415","1562584155","229","[89,96,95,61,70,45]","321.7"
"284","699","3","7","1","5","1","1562584376","1562584155","229","[72,75,37,19,81,63,98,30,65,78,79,15,51,95,99,54,67,3,52,35,2,11,46,10,83,66]","1.7"
"285","603","3","7","1","10","1","1562584332","1562584155","229","[11,3,84]","241.7"
"286","681","3","7","1","56","1","1562584414","1562584155","229","[15,23,53,37,25,35,86,24,87,82,50]","241.7"
"287","633","3","7","1","61","1","1562584402","1562584155","229","[69,32,89,94,76,58,28,36,59,55]","161.7"
"288","626","3","7","1","92","1","1562584404","1562584155","229","[57,36,70,100,42,21,76,85,48,39,94,55,97,80,69,83,40,50,90]","321.7"
"289","625","3","7","1","94","1","1562584400","1562584155","229","[8,42,36,76,70,82,17,43,85,55,21,58]","321.7"
"290","683","3","7","1","29","1","1562584419","1562584155","229","[17,80,64,21,58,43,23,60,26,1,59,42,96,33,91,41,38,89,32]","321.7"
"291","659","3","7","1","46","1","1562584417","1562584155","229","[97,44,88,60]","321.7"
"292","677","3","7","1","51","1","1562584405","1562584155","229","[93,29,65,21,37,3,62,42,26]","321.7"
"293","627","3","7","1","95","1","1562584419","1562584155","229","[98,1,96,14,91,55,43,42,45,62,39,36,92,100,10,5,20,99,66,7,77,59,28]","-158.3"
"294","661","3","7","1","85","1","1562584414","1562584155","229","[42,70,21]","321.7"
"295","641","3","7","1","24","1","1562584400","1562584155","229","[40,19,96,37,86,87,36,39,73,94,14]","241.7"
"296","649","3","7","1","72","1","1562584417","1562584155","229","[53,98]","168"
"297","676","3","7","1","76","1","1562584404","1562584155","229","[57,32,88,80]","321.7"
"298","695","3","7","1","22","1","1562584416","1562584155","229","[8,67,20,90,25,38,9,34,33,15,13,42,1]","81.7"
"299","657","3","7","1","64","1","1562584415","1562584155","229","[80,9,14,38,60,49,23,34,3,78,22,4,6,57,10,15,5,1,88,93,19]","1.7"
"300","688","3","7","1","67","1","1562584419","1562584155","229","[98,65,54,22,33,6,38,5,1,42]","1.7"
"301","691","4","7","1","68","1","1562584686","1562584592","264","[23,19]","307.6"
"302","689","4","7","1","59","1","1562584692","1562584592","264","[8,37,48,26,97,21,54,40,87,42,5]","-12.4"
"303","660","4","7","1","30","1","1562584689","1562584592","264","[72,84,2,20,73]","307.6"
"304","639","4","7","1","48","1","1562584683","1562584592","264","[8,98,29,59]","307.6"
"305","654","4","7","1","92","1","1562584693","1562584592","264","[57,26,55,75,72,98]","227.6"
"306","680","4","7","1","2","1","1562584691","1562584592","264","[29,24,30,86,75]","147.6"
"307","616","4","7","1","52","1","1562584681","1562584592","264","[64,67]","307.6"
"308","697","4","7","1","14","1","1562584691","1562584592","264","[64,79,57,39,53,87,58]","307.6"
"309","631","4","7","1","8","1","1562584694","1562584592","264","[92,89,37,25,16,62,59,48]","147.6"
"310","619","4","7","1","22","1","1562584663","1562584592","264","[75,90]","307.6"
"311","667","4","7","1","46","1","1562584690","1562584592","264","[83,23,66,38,34,60,6,97,96,61]","237.9"
"312","671","4","7","1","36","1","1562584693","1562584592","264","[25,10,23,55,98,19,33,90,7,73]","67.6"
"313","653","4","7","1","49","1","1562584692","1562584592","264","[80,31,19,39]","307.6"
"314","648","4","7","1","56","1","1562584694","1562584592","264","[97,11]","67.5"
"315","651","4","7","1","53","1","1562584693","1562584592","264","[100,59,48,61,21,99,85,67,52,34]","227.6"
"316","662","4","7","1","25","1","1562584694","1562584592","264","[79,23,74,71,27,92,72,81,64,60,43,91]","227.6"
"317","637","4","7","1","83","1","1562584694","1562584592","264","[46,80,50,85,91,93,60,67]","462.2"
"318","690","4","7","1","9","1","1562584690","1562584592","264","[3,23]","879.4"
"319","670","4","7","1","60","1","1562584694","1562584592","264","[8,48,75,80,64,97,81,54,88,28,85,78,14,22,72,99,90]","67.6"
"320","664","4","7","1","4","1","1562584691","1562584592","264","[17,53,78,47,28]","307.6"
"321","698","4","7","1","51","1","1562584676","1562584592","264","[32,55]","307.6"
"322","681","4","7","1","93","1","1562584694","1562584592","264","[15,35,83,50,3]","462.2"
"323","688","4","7","1","19","1","1562584680","1562584592","264","[80,68,71,49,31,15,33]","147.6"
"324","623","4","7","1","100","1","1562584693","1562584592","264","[70,56,33,97,87,3,11]","346.6"
"325","679","4","7","1","7","1","1562584685","1562584592","264","[64,13,18,53,36,22,16]","307.6"
"326","634","4","7","1","63","1","1562584692","1562584592","264","[100,73,93,13,30,82]","307.6"
"327","692","4","7","1","13","1","1562584691","1562584592","264","[97,67,10,27]","307.6"
"328","621","4","7","1","44","1","1562584689","1562584592","264","[15,59,46,62,97,13,18,73]","307.6"
"329","675","4","7","1","18","1","1562584689","1562584592","264","[66,92,72,26,36,95,41,38,69,86]","227.6"
"330","636","4","7","1","64","1","1562584690","1562584592","264","[37,7,52]","307.6"
"331","663","4","7","1","58","1","1562584686","1562584592","264","[25,45,84,100,11,39,97,61,14]","227.6"
"332","647","4","7","1","55","1","1562584685","1562584592","264","[1,100,21,51,32,47,49,88,36]","227.6"
"333","609","4","7","1","76","1","1562584694","1562584592","264","[29,85,38]","227.6"
"334","657","4","7","1","75","1","1562584691","1562584592","264","[1,45,29,22,60,91,79,92,39,6,2,93,72]","-92.4"
"335","652","4","7","1","69","1","1562584694","1562584592","264","[96,99,21,79,85,86,36,90,93,95]","307.6"
"336","694","4","7","1","66","1","1562584627","1562584592","264","[70,45,84,5,29]","1005.7"
"337","686","4","7","1","84","1","1562584661","1562584592","264","[21,45,85,58,24]","147.6"
"338","649","4","7","1","95","1","1562584694","1562584592","264","[69,15,73,18,57]","147.6"
"339","624","4","7","1","39","1","1562584693","1562584592","264","[76,64,72,49,47,70,60,75,100,87,17,58,14,79]","-12.4"
"340","606","4","7","1","23","1","1562584690","1562584592","264","[34,68,86,31,9,87,93,94,33,10,96,97,20,56,5,36]","1148.9"
"341","687","4","7","1","34","1","1562584694","1562584592","264","[36,97,71,54,26,53,67,21,61,77,60,47,9,51,32]","-12.4"
"342","605","4","7","1","50","1","1562584683","1562584592","264","[93,71,73,46,25,83]","307.6"
"343","612","4","7","1","88","1","1562584668","1562584592","264","[1,73,17,55,82,23,46,99,34]","147.6"
"344","683","4","7","1","87","1","1562584686","1562584592","264","[8,37,21,1,97,84,78,79,89,29,5,6,65,57,24,42,40]","227.6"
"345","674","4","7","1","67","1","1562584694","1562584592","264","[84,17,98,60,13,53,82,34,97,24,54,52,85,72]","-172.4"
"346","601","4","7","1","71","1","1562584691","1562584592","264","[12,91,81,43,49,33,22,34]","147.6"
"347","617","4","7","1","90","1","1562584673","1562584592","264","[98,26,25,69,67,22,57,36,46,97,87,100]","227.6"
"348","602","4","7","1","38","1","1562584681","1562584592","264","[76,15,53,71,49,99,56,29,24,33,97,1]","307.6"
"349","608","4","7","1","28","1","1562584694","1562584592","264","[17,57,60,90,54]","227.6"
"350","611","4","7","1","15","1","1562584676","1562584592","264","[91,93,20,19,33,94,44]","147.6"
"351","669","4","7","1","96","1","1562584678","1562584592","264","[40,67,99]","307.6"
"352","610","4","7","1","43","1","1562584690","1562584592","264","[37,25]","307.6"
"353","614","4","7","1","80","1","1562584678","1562584592","264","[71,45,70,13,25,29,57,36,22,30,60]","307.6"
"354","685","4","7","1","78","1","1562584694","1562584592","264","[8,48,100,74,79,97,4,47,34,56,52,46,44,53,10,55,69,90]","227.6"
"355","603","4","7","1","12","1","1562584669","1562584592","264","[71,81]","307.6"
"356","632","4","7","1","65","1","1562584684","1562584592","264","[57,87]","307.6"
"357","644","4","7","1","86","1","1562584684","1562584592","264","[18,32,73,23,2]","147.6"
"358","607","4","7","1","85","1","1562584690","1562584592","264","[40,53,38,20,76,83]","227.6"
"359","622","4","7","1","6","1","1562584692","1562584592","264","[49,1,95,100,92,70,68,56,11,38]","164.7"
"360","604","4","7","1","42","1","1562584679","1562584592","264","[59,69,18,31]","307.6"
"361","625","4","7","1","37","1","1562584693","1562584592","264","[38,1,43,79,78]","307.6"
"362","658","4","7","1","40","1","1562584693","1562584592","264","[59,57,88,96]","227.6"
"363","668","4","7","1","57","1","1562584688","1562584592","264","[30,70,40,95,34,10,66,20,98,65,77,61,24,45,5,93]","147.6"
"364","615","4","7","1","31","1","1562584691","1562584592","264","[38,85,77,98,10,12,24,23,42]","307.6"
"365","626","4","7","1","98","1","1562584694","1562584592","264","[89,8,60,92,79,62,16,24,37,74,85]","147.6"
"366","665","4","7","1","11","1","1562584690","1562584592","264","[100,97,22,38,26,98,56,61,28,65,78,21]","155.2"
"367","620","4","7","1","3","1","1562584680","1562584592","264","[100,9]","577.9"
"368","643","4","7","1","81","1","1562584693","1562584592","264","[71,99,2,60,12,29,41]","-12.4"
"369","640","4","7","1","1","1","1562584663","1562584592","264","[37,26,98,16,77]","307.6"
"370","628","4","7","1","41","1","1562584674","1562584592","264","[18,81,25]","307.6"
"371","630","4","7","1","27","1","1562584685","1562584592","264","[36,13,72,68,70,1,20,25,58]","227.6"
"372","673","4","7","1","77","1","1562584685","1562584592","264","[82,21,85,38,10,20,33,96,34]","307.6"
"373","666","4","7","1","16","1","1562584690","1562584592","264","[47,100,29,38,98,61]","542.2"
"374","635","4","7","1","10","1","1562584690","1562584592","264","[17,70]","164.7"
"375","656","4","7","1","94","1","1562584651","1562584592","264","[63,97,57,99,23,51,28,77,75]","240"
"376","672","4","7","1","70","1","1562584694","1562584592","264","[1,49,87,6,97,48,66,10]","559.8"
"377","629","4","7","1","17","1","1562584692","1562584592","264","[51,67,99,54,28,55,4,47,49,88,39]","-172.4"
"378","700","4","7","1","74","1","1562584693","1562584592","264","[46,25,78]","307.6"
"379","699","4","7","1","82","1","1562584690","1562584592","264","[98,36,58,8,25,77,68,55,67,71,57,88,54,72,56,63,99,76,5]","-12.4"
"380","633","4","7","1","20","1","1562584690","1562584592","264","[25,27,60,23,45]","307.6"
"381","650","4","7","1","79","1","1562584690","1562584592","264","[57,70,60,75,29,13,59,34,71,2,66,40,92,8,39]","227.6"
"382","613","4","7","1","91","1","1562584678","1562584592","264","[71,15]","307.6"
"383","677","4","7","1","35","1","1562584652","1562584592","264","[100,21,61,24,93,69]","237.9"
"384","659","4","7","1","45","1","1562584692","1562584592","264","[79,47,89,49,84,97]","307.6"
"385","642","4","7","1","47","1","1562584682","1562584592","264","[49,17,78,53,51,54,99]","227.6"
"386","641","4","7","1","33","1","1562584682","1562584592","264","[79,23,19,38]","227.6"
"387","646","4","7","1","54","1","1562584691","1562584592","264","[56,26,97,17,48,100,21,59,99,78,51,34,60,29,84,37,82,67,68,88,47,52,28,96]","-172.4"
"388","638","4","7","1","73","1","1562584694","1562584592","264","[23,15,71,63,84,36,98,72,56,34,95,85,44,51,86,20,46,78,61,30,14,8,1,37,32,43,26,88,90,47,27,25]","-92.4"
"389","696","4","7","1","29","1","1562584692","1562584592","264","[76,64,37,72,84,80,79,71,16,45,25,23,2,66,24,74,22,81]","-172.4"
"390","627","4","7","1","72","1","1562584684","1562584592","264","[29,37,84,92,67,16,76,75]","147.6"
"391","661","4","7","1","62","1","1562584664","1562584592","264","[26,8,43,98]","307.6"
"392","678","4","7","1","21","1","1562584694","1562584592","264","[22,71,84,65,87,24]","227.6"
"393","682","4","7","1","5","1","1562584693","1562584592","264","[16,57,97,85,66,59,17,82]","67.6"
"394","693","4","7","1","61","1","1562584692","1562584592","264","[80,29,97,33,10,38,62,16]","237.9"
"395","684","4","7","1","99","1","1562584681","1562584592","264","[17,96,81,93]","227.6"
"396","655","4","7","1","26","1","1562584691","1562584592","264","[100,87,32,1,34]","227.6"
"397","695","4","7","1","89","1","1562584689","1562584592","264","[100,8,48,92,98,16]","307.6"
"398","618","4","7","1","32","1","1562584687","1562584592","264","[77,26,51]","307.6"
"399","645","4","7","1","24","1","1562584692","1562584592","264","[4,72,58,37,21,84,87]","227.6"
"400","676","4","7","1","97","1","1562584675","1562584592","264","[25,45,5]","307.6"
"401","654","5","7","1","41","1","1562585217","1562585040","102","[84,76,37,26,21,2,100,58,46]","169.2"
"402","623","5","7","1","47","1","1562585212","1562585040","102","[79,8,5]","329.2"
"403","692","5","7","1","13","1","1562585215","1562585040","102","[76,16,98,90,100,10,61,27,25,89,35]","329.2"
"404","619","5","7","1","29","1","1562585216","1562585040","102","[6,43,32,88,13,40,100,50]","329.2"
"405","671","5","7","1","14","1","1562585217","1562585040","102","[24,36,31,16,78,91,15,9,10,42]","249.2"
"406","680","5","7","1","11","1","1562585188","1562585040","102","[98,15,82,93,80,86,64,81,91,58,51,56]","89.2"
"407","698","5","7","1","90","1","1562585219","1562585040","102","[56,67,93]","329.2"
"408","618","5","7","1","25","1","1562585217","1562585040","102","[8,1,72,59,69,12]","329.2"
"409","663","5","7","1","12","1","1562585215","1562585040","102","[25,80,55,32,10,39,93,40,81,54]","89.2"
"410","653","5","7","1","75","1","1562585208","1562585040","102","[52,6,97,84,35,2]","89.2"
"411","661","5","7","1","54","1","1562585195","1562585040","102","[20,81,65]","329.2"
"412","612","5","7","1","56","1","1562585210","1562585040","102","[80,1,37,62,74,60,90,65,26,18,44,41,47,13,81]","249.2"
"413","686","5","7","1","67","1","1562585215","1562585040","102","[5,65,41,39,1]","249.2"
"414","667","5","7","1","32","1","1562585194","1562585040","102","[90,92,73,16]","329.2"
"415","685","5","7","1","65","1","1562585219","1562585040","102","[48,100,8,80,63,96,64,45,76,40,13,5,74,90,81,1]","249.2"
"416","664","5","7","1","15","1","1562585219","1562585040","102","[96,94,31,72,99]","249.2"
"417","681","5","7","1","98","1","1562585217","1562585040","102","[20,63,11,95,60]","329.2"
"418","700","5","7","1","44","1","1562585211","1562585040","102","[53,56]","329.2"
"419","696","5","7","1","83","1","1562585192","1562585040","102","[69,25,84,16,27]","329.2"
"420","651","5","7","1","2","1","1562585219","1562585040","102","[100,75,48,63,16,24,73,84]","249.2"
"421","699","5","7","1","35","1","1562585218","1562585040","102","[1,21,38,8,100,49,80,61,26,75,64,89,98,46,48,65,93,10,12,54,39,40,13]","89.2"
"422","660","5","7","1","18","1","1562585212","1562585040","102","[77,56]","329.2"
"423","643","5","7","1","30","1","1562585181","1562585040","102","[100,77,86,88,24,55,62,20,23,89,28,90]","9.2"
"424","608","5","7","1","77","1","1562585219","1562585040","102","[65,54,55,18]","329.2"
"425","644","5","7","1","34","1","1562585209","1562585040","102","[38,64,37,62,23,28,89,2,54,93,81,92,35,67]","169.2"
"426","655","5","7","1","68","1","1562585210","1562585040","102","[8,79,71,99,80,57,61,73,38]","417.9"
"427","620","5","7","1","22","1","1562585217","1562585040","102","[46,31,69]","329.2"
"428","683","5","7","1","88","1","1562585217","1562585040","102","[48,100,21,74,81,61,3,59,71,72,49,46,57,87,22]","169.2"
"429","670","5","7","1","80","1","1562585141","1562585040","102","[100,76,58,1,57,63,42]","329.2"
"430","639","5","7","1","24","1","1562585179","1562585040","102","[37,72,84,74,55,30,78]","329.2"
"431","631","5","7","1","60","1","1562585218","1562585040","102","[31,98,32,44,8]","249.2"
"432","675","5","7","1","20","1","1562585215","1562585040","102","[10,32,37,66,54,65,5]","329.2"
"433","616","5","7","1","82","1","1562585171","1562585040","102","[11,43]","329.2"
"434","626","5","7","1","84","1","1562585211","1562585040","102","[37,76,64,100,74,40,27,63,75,1,95,65,50,61,55,39,98,2,82]","169.2"
"435","682","5","7","1","96","1","1562585219","1562585040","102","[24,46,98,15,26,1,38,100,78,95]","249.2"
"436","627","5","7","1","48","1","1562585212","1562585040","102","[79,50,84,63,61,80,27,65,1,2]","9.2"
"437","687","5","7","1","16","1","1562585214","1562585040","102","[15,76,74,69,72,60,55,58,43,83,80,36,78,48,32,54,65,52,100,7,47,51,27,91,9]","249.2"
"438","689","5","7","1","38","1","1562585215","1562585040","102","[8,49,21,63,66,55,9]","329.2"
"439","665","5","7","1","81","1","1562585215","1562585040","102","[10,25,19,97,66,45,54,40,23,29,2,7,47,5,77,12]","575.4"
"440","646","5","7","1","89","1","1562585219","1562585040","102","[8,1,92,19,35,10,94,7,17,98,28,84,96,47,50,20,56,34,5,12,39,26,67,30,93,99,78,24,13,4,55,15,36,97,53]","-390.8"
"441","690","5","7","1","97","1","1562585197","1562585040","102","[88,42,100,66]","329.2"
"442","688","5","7","1","91","1","1562585206","1562585040","102","[14,76,42,64,21,3]","329.2"
"443","629","5","7","1","92","1","1562585215","1562585040","102","[89,32,28,34]","169.2"
"444","662","5","7","1","73","1","1562585219","1562585040","102","[84,80,63,22,15,81,36,51,45,65,72,59,71,96,88,78,9,16,66,99]","329.2"
"445","633","5","7","1","51","1","1562585218","1562585040","102","[64,14,27,99,9,42,3,61,11]","169.2"
"446","697","5","7","1","59","1","1562585216","1562585040","102","[6,91,75,37,71,76]","329.2"
"447","647","5","7","1","87","1","1562585217","1562585040","102","[15,91,5,46,26,45,94,72,58,88]","329.2"
"448","691","5","7","1","33","1","1562585151","1562585040","102","[46,62]","329.2"
"449","659","5","7","1","37","1","1562585210","1562585040","102","[79,74,54,84]","329.2"
"450","650","5","7","1","76","1","1562585215","1562585040","102","[79,19,47,57,78,77,26,24,27,45,67,73,17,86,96,59,30,33,22]","329.2"
"451","601","5","7","1","4","1","1562585153","1562585040","102","[62,23,42,88,28,66]","249.2"
"452","606","5","7","1","50","1","1562585202","1562585040","102","[100,61,2,42,32,29,16,48,40,90,72,45,57]","329.2"
"453","674","5","7","1","45","1","1562585195","1562585040","102","[100,1,59,68,70,58]","329.2"
"454","617","5","7","1","28","1","1562585219","1562585040","102","[72,98,32,23,64,55,89,83,10,42,91,93,94,30,1,38,6,92,86,21,40,53,68,57,4,59,97,88,90,5,34,78,56,67,41,76,14,75,63]","-70.8"
"455","640","5","7","1","8","1","1562585196","1562585040","102","[80,20,94,74,76,47,45,71,1,100,63,83,35,89,49,56,60,88]","169.2"
"456","679","5","7","1","58","1","1562585216","1562585040","102","[45,62,52,41,11]","169.2"
"457","636","5","7","1","95","1","1562585214","1562585040","102","[60,81,7,93,84]","249.2"
"458","614","5","7","1","52","1","1562585219","1562585040","102","[100,1,55,76,75,47,60,6,31]","329.2"
"459","669","5","7","1","10","1","1562585149","1562585040","102","[46,85,62,73]","329.2"
"460","609","5","7","1","57","1","1562585219","1562585040","102","[80,70,64,63]","249.2"
"461","602","5","7","1","100","1","1562585211","1562585040","102","[77,30,15,37,98,47,91,29,79,46,97,41,64,61,4,55,85,14,69,10,72]","89.2"
"462","673","5","7","1","3","1","1562585219","1562585040","102","[1,71,100,79,6,88,49]","329.2"
"463","695","5","7","1","79","1","1562585217","1562585040","102","[8,72,37,84,6,48,43]","249.2"
"464","649","5","7","1","39","1","1562585210","1562585040","102","[12,67]","329.2"
"465","694","5","7","1","66","1","1562585179","1562585040","102","[4,19,80,97,38]","249.2"
"466","605","5","7","1","7","1","1562585219","1562585040","102","[9,36,45,32,11,65,2,62,95,54,84,82,4,30,89,92]","249.2"
"467","668","5","7","1","55","1","1562585217","1562585040","102","[80,47,25,15,45,40,64,43,32,66,69,50,37,53,27,9,77,89,12,73,42]","169.2"
"468","611","5","7","1","31","1","1562585219","1562585040","102","[12,94,72,22,1,16,88,17,73,60,23,62]","9.2"
"469","604","5","7","1","40","1","1562585123","1562585040","102","[100,13,81]","249.6"
"470","634","5","7","1","17","1","1562585208","1562585040","102","[88,31,55,67,50,89,94,73]","329.2"
"471","638","5","7","1","62","1","1562585219","1562585040","102","[50,23,88,15,90,58,36,85,5,16,54,95,33,81,73,83,100,27,71,1,30,52,75,93,65,67,51,72,26,29,12,35,94,31,43,60,64,21,19,79,66,7,34,4]","-390.8"
"472","610","5","7","1","53","1","1562585159","1562585040","102","[44,28]","329.2"
"473","621","5","7","1","27","1","1562585212","1562585040","102","[38,100,21,1,83,64,42]","329.2"
"474","628","5","7","1","19","1","1562585219","1562585040","102","[64,62,76]","249.2"
"475","613","5","7","1","69","1","1562585209","1562585040","102","[25,88,55]","329.2"
"476","622","5","7","1","74","1","1562585204","1562585040","102","[90,60,55,98,73,24,88]","329.2"
"477","632","5","7","1","43","1","1562585164","1562585040","102","[82,6]","329.2"
"478","635","5","7","1","71","1","1562585204","1562585040","102","[59,72,61,88,70,45,94,46]","169.2"
"479","642","5","7","1","93","1","1562585218","1562585040","102","[13,76,12,62,90,65,73,2,39,33,95,89,46,23]","89.2"
"480","678","5","7","1","78","1","1562585218","1562585040","102","[80,64,15,100,5,75,16,72,73]","329.2"
"481","624","5","7","1","70","1","1562585211","1562585040","102","[24,72,60,21,79,52,91,63,51,75,42,9,73,45,76,71]","249.2"
"482","637","5","7","1","23","1","1562585210","1562585040","102","[62,28,2,58,31]","249.2"
"483","625","5","7","1","42","1","1562585219","1562585040","102","[100,8,1,75,69,88,19,14,71,49]","329.2"
"484","603","5","7","1","86","1","1562585204","1562585040","102","[30,11]","329.2"
"485","607","5","7","1","94","1","1562585218","1562585040","102","[43,88,31,15]","329.2"
"486","630","5","7","1","49","1","1562585211","1562585040","102","[42,3,31,26,15,67,16,73,35]","249.2"
"487","666","5","7","1","36","1","1562585213","1562585040","102","[37,62,81,72]","329.2"
"488","656","5","7","1","5","1","1562585100","1562585040","102","[79,47,67,36,94,70,20]","249.2"
"489","648","5","7","1","63","1","1562585215","1562585040","102","[57,74,65,48]","249.2"
"490","615","5","7","1","26","1","1562585218","1562585040","102","[73,96,99]","329.2"
"491","657","5","7","1","99","1","1562585213","1562585040","102","[72,21,27,84,83,38,2,65,26,62,73,64,68,31,9,59,51,15]","576.2"
"492","641","5","7","1","1","1","1562585211","1562585040","102","[48,67,38,65,80,26,41,96,98,2]","89.2"
"493","684","5","7","1","6","1","1562585205","1562585040","102","[18,79,97,75,80,37,43,55,52]","169.2"
"494","676","5","7","1","9","1","1562585207","1562585040","102","[18,8,38,3,1,14,51,99,49,70,80]","89.2"
"495","677","5","7","1","46","1","1562585219","1562585040","102","[55,14,94,22,82,87,33,66,41,48,74,72,29,10]","89.2"
"496","645","5","7","1","61","1","1562585205","1562585040","102","[68]","170.4"
"497","693","5","7","1","85","1","1562585199","1562585040","102","[46,10,100]","329.2"
"498","652","5","7","1","64","1","1562585207","1562585040","102","[4,66,57,14,42,19,88,51,6]","249.2"
"499","658","5","7","1","72","1","1562585205","1562585040","102","[76,36,59,71]","329.2"
"500","672","5","7","1","21","1","1562585214","1562585040","102","[100,1,61,71,67,79,16,93,80,63,27,42,55,91,41]","249.2"
"501","691","6","7","1","2","1","1562585723","1562585461","179","[60,80]","308.4"
"502","663","6","7","1","95","1","1562585787","1562585461","179","[25,63,19,40,57,59,52,48,77,62,85,28]","308.4"
"503","698","6","7","1","6","1","1562585810","1562585461","179","[20,67]","308.4"
"504","639","6","7","1","91","1","1562585788","1562585461","179","[21,43,67,24,70]","308.4"
"505","660","6","7","1","1","1","1562585811","1562585461","179","[9]","164.4"
"506","671","6","7","1","47","1","1562585812","1562585461","179","[84,55,19,70,83,13,51,87,76,33,50,56,57,43,38,14]","68.4"
"507","681","6","7","1","25","1","1562585799","1562585461","179","[83,35,14,84]","308.4"
"508","653","6","7","1","79","1","1562585812","1562585461","179","[3,64]","308.4"
"509","654","6","7","1","50","1","1562585812","1562585461","179","[82,53,70,29,35,14,25,48,42,12,36]","308.4"
"510","614","6","7","1","82","1","1562585728","1562585461","179","[3,41]","308.4"
"511","697","6","7","1","23","1","1562585813","1562585461","179","[9,72,95,69,77,88,78,87,2,39,34,67,41]","228.4"
"512","667","6","7","1","63","1","1562585808","1562585461","179","[67,73,29,78,90,61,51,41]","228.4"
"513","637","6","7","1","34","1","1562585812","1562585461","179","[78,84,71,24,96,63,23,68,15]","308.4"
"514","692","6","7","1","19","1","1562585769","1562585461","179","[25,65,33,53,52,88,67,16]","308.4"
"515","643","6","7","1","20","1","1562585793","1562585461","179","[97,12,67,81,31,76,94,100,78,18,65,90,41,23,21,40,98,24,33,58,52,3,6,84,42,55,49,66,96,1,88]","770.6"
"516","689","6","7","1","36","1","1562585805","1562585461","179","[25,91,73,90,93,71,50,7,74,12,40,85]","228.4"
"517","674","6","7","1","30","1","1562585804","1562585461","179","[49,54,51,23,21,76,3]","228.4"
"518","700","6","7","1","93","1","1562585791","1562585461","179","[36,100]","308.4"
"519","629","6","7","1","39","1","1562585781","1562585461","179","[27,13]","308.4"
"520","619","6","7","1","58","1","1562585804","1562585461","179","[48,71,24]","228.4"
"521","610","6","7","1","92","1","1562585789","1562585461","179","[16,64]","308.4"
"522","680","6","7","1","5","1","1562585807","1562585461","179","[16,3,51,53,55,33]","308.4"
"523","644","6","7","1","16","1","1562585784","1562585461","179","[19,31,92,52,81,5,76,94,38,89,88,3,79,90,80,18,78]","68.4"
"524","669","6","7","1","69","1","1562585788","1562585461","179","[26,62,50,3,41,67,32]","148.4"
"525","636","6","7","1","61","1","1562585812","1562585461","179","[65,98,8,76,47,4,67,37,63]","228.4"
"526","631","6","7","1","54","1","1562585813","1562585461","179","[71,82,59,24,65,50,4,81,26,78,85,30]","228.4"
"527","612","6","7","1","13","1","1562585813","1562585461","179","[49,70,8,29,53,33,39,72,75]","308.4"
"528","646","6","7","1","3","1","1562585812","1562585461","179","[38,22,100,49,61,55,80,89,14,54,79,42,70,91,68,6,31,96,67,16,5,20,97,76,40,62,69,30,85,7,52,64,65,82,41,81,66,24,27,35,87,18,19,92,10,63,21,98,47,56,78]","-571.6"
"529","672","6","7","1","97","1","1562585808","1562585461","179","[100,1,70,48,37,12,42,83,8,15,40,53,34,28]","308.4"
"530","615","6","7","1","75","1","1562585806","1562585461","179","[33,64]","308.4"
"531","675","6","7","1","26","1","1562585810","1562585461","179","[83,52,29,65,85,99,96,50,43,81,44,70]","228.4"
"532","648","6","7","1","42","1","1562585782","1562585461","179","[70,68,29]","308.4"
"533","601","6","7","1","81","1","1562585776","1562585461","179","[80,83,88,70,26,54]","308.4"
"534","665","6","7","1","100","1","1562585809","1562585461","179","[24,8,53,34,7,40,93,74,28,95,81,85,22,45,18]","228.4"
"535","690","6","7","1","87","1","1562585755","1562585461","179","[47,64]","308.4"
"536","688","6","7","1","17","1","1562585788","1562585461","179","[48,18,66,70]","308.4"
"537","670","6","7","1","24","1","1562585809","1562585461","179","[8,17,1,80,59,64,58,43,44,85,83,53,72,97,10,67,37,18,69,62,77,20,88,52,66,73,90,98,11,60,74,95,49,70,46,63,96]","68.4"
"538","621","6","7","1","7","1","1562585686","1562585461","179","[38,85,19,81,69,65,40]","400.7"
"539","664","6","7","1","35","1","1562585812","1562585461","179","[10,42,27,94,31,25,83,33,75,64,90]","543.9"
"540","684","6","7","1","60","1","1562585794","1562585461","179","[17,80,64,76,2,30]","308.4"
"541","609","6","7","1","11","1","1562585812","1562585461","179","[55,100,78,18,41,65]","308.4"
"542","602","6","7","1","80","1","1562585809","1562585461","179","[89,49,3,83,32,22,88,12,35,52,2,29,90,40,56,100,70,13,8,58,99,47,93,50,86,37,53,85]","618.2"
"543","650","6","7","1","55","1","1562585813","1562585461","179","[80,36,58,26,84,25,100,57,15,52,34,99,71,17,45,65,24,40,74,44,73,82,69,91,1,86,28,23,19,20,6,62,96]","240.2"
"544","617","6","7","1","41","1","1562585810","1562585461","179","[72,64,80,47,58,21,35,65,27,69,74,11,48,66,15,24,43,76,17,88,34,44,55,71,12,2,20,94,23,36,86,61,98,32,22,62,51,83,25,8,84,53,68,82,96,3,31,39,95,6,70,49,67,85,5,19,26,63,52,99,37,46,91,97,42,10,13,33,56,54,78,59,29,1]","-416.1"
"545","652","6","7","1","98","1","1562585808","1562585461","179","[65,91,64,8,72,15,87]","308.4"
"546","640","6","7","1","22","1","1562585808","1562585461","179","[45,70,28,18,25,13,87,34,52,29,77,99]","228.4"
"547","655","6","7","1","9","1","1562585803","1562585461","179","[61,31,21,1]","402"
"548","687","6","7","1","15","1","1562585811","1562585461","179","[8,37,76,67,68,36,58,83,21,98,65,43,42,73,44,70,46,31,86,17,89,94]","-251.6"
"549","606","6","7","1","12","1","1562585806","1562585461","179","[51,45,82,48,84,83,68,25,33,13,35,17,96,63,74,31]","228.4"
"550","647","6","7","1","96","1","1562585798","1562585461","179","[62,67]","308.4"
"551","608","6","7","1","89","1","1562585721","1562585461","179","[75,99,80,100]","400.7"
"552","616","6","7","1","72","1","1562585709","1562585461","179","[83,27]","308.4"
"553","651","6","7","1","76","1","1562585812","1562585461","179","[12,24,29,65,16,57,98,41]","308.4"
"554","666","6","7","1","53","1","1562585804","1562585461","179","[27,35,41]","238.9"
"555","613","6","7","1","71","1","1562585640","1562585461","179","[36,58]","308.4"
"556","633","6","7","1","32","1","1562585807","1562585461","179","[44,40,54,14,41,24,15,46,86,63,49,91,55,26,67]","228.4"
"557","627","6","7","1","21","1","1562585802","1562585461","179","[8,1,24,53,97,51,78,83,67,59,35,30,15,20,57,47,46,3,65,32,34,64,29,9,31,41,90,66,96,91,88]","130.5"
"558","683","6","7","1","70","1","1562585808","1562585461","179","[59,82,45,25,98,84,86,55,26,49,17]","228.4"
"559","677","6","7","1","37","1","1562585807","1562585461","179","[15,97]","308.4"
"560","649","6","7","1","56","1","1562585810","1562585461","179","[80,47]","308.4"
"561","682","6","7","1","88","1","1562585805","1562585461","179","[26,100,2,1,21]","240.2"
"562","611","6","7","1","77","1","1562585813","1562585461","179","[100,21,90,85,55,22,78,5,74]","308.4"
"563","638","6","7","1","67","1","1562585812","1562585461","179","[17,18,44,46,59,71,6,91,23,87,45,33,34,73,57,15,97,21,26,32,40,69,86,65,55,24,61,66,12,2,3,96,19,63,74,50,7,22,4,81,80,89,54,92,28,14,31,8]","-496.1"
"564","632","6","7","1","52","1","1562585810","1562585461","179","[80,90,26]","308.4"
"565","662","6","7","1","14","1","1562585813","1562585461","179","[91,83,24,58,84,30,34,55,28,13,39,76,85,1,10,60,7,61,98,38,89,80,47,18,11,9,57,33,90]","228.4"
"566","696","6","7","1","10","1","1562585812","1562585461","179","[77,35,52]","238.9"
"567","605","6","7","1","66","1","1562585807","1562585461","179","[8,100,58,82,49,19,65,23,21,46]","308.4"
"568","699","6","7","1","18","1","1562585806","1562585461","179","[100,63,58,37,91,88,83,1,51,68,55,11,34,66,40,62,44,50,38,74,85]","228.4"
"569","685","6","7","1","48","1","1562585813","1562585461","179","[49,100,1,80,58,25,10,17,37,51,50]","228.4"
"570","628","6","7","1","46","1","1562585807","1562585461","179","[66,15,17]","308.4"
"571","658","6","7","1","51","1","1562585808","1562585461","179","[57,98,9,41,21]","308.4"
"572","657","6","7","1","62","1","1562585813","1562585461","179","[8,48,26,96,77,65,14,69,50,93,22,95,78,18]","68.4"
"573","625","6","7","1","83","1","1562585810","1562585461","179","[59,72,8]","308.4"
"574","624","6","7","1","78","1","1562585809","1562585461","179","[82,88,67,100,55,28,38,5,54,80,94,18,89,22,81,65,62]","308.4"
"575","635","6","7","1","27","1","1562585801","1562585461","179","[64,8,72,47,39,29,60,70,24,33,42,35,43,13,14,98,10,96,9,34,84,1]","148.4"
"576","626","6","7","1","49","1","1562585813","1562585461","179","[8,10,43,59,24,98,2,25,72,58,15,82,42,91,68,34,84,70,97,23,86,44,73,88,67,19,69,17,45,28,46,31,4,71]","463.9"
"577","620","6","7","1","44","1","1562585799","1562585461","179","[85,32,40,24]","308.4"
"578","642","6","7","1","29","1","1562585704","1562585461","179","[8,64,71,24,21,68,53,84,25,70,42,39,47,75,34,43,41]","148.4"
"579","656","6","7","1","68","1","1562585564","1562585461","179","[79,82,72,88,42,15]","308.4"
"580","622","6","7","1","59","1","1562585798","1562585461","179","[57,76,65,78,55,94,47,100,13]","164.4"
"581","618","6","7","1","86","1","1562585806","1562585461","179","[54,49,50]","238.9"
"582","630","6","7","1","31","1","1562585811","1562585461","179","[96,48,81,40,97,84,47,91,12,23,66,26,41,43,60,15,38]","228.4"
"583","634","6","7","1","94","1","1562585806","1562585461","179","[8,50,29,93,46,60,20,37,70,59]","402"
"584","623","6","7","1","28","1","1562585787","1562585461","179","[99,86,40,22]","308.4"
"585","603","6","7","1","73","1","1562585695","1562585461","179","[67,15]","308.4"
"586","607","6","7","1","90","1","1562585801","1562585461","179","[14,21,64]","228.4"
"587","604","6","7","1","85","1","1562585619","1562585461","179","[30,7]","163.9"
"588","678","6","7","1","99","1","1562585811","1562585461","179","[82,8,15,70,100,16,71,89,77]","163.9"
"589","641","6","7","1","64","1","1562585787","1562585461","179","[3,75,47,57,21,39,41,87,60,38,79,90,85,18,92,98,27]","-411.6"
"590","694","6","7","1","38","1","1562585702","1562585461","179","[61,3,75,92,47,87]","308.4"
"591","679","6","7","1","45","1","1562585792","1562585461","179","[22,12,51,100,50]","228.4"
"592","673","6","7","1","43","1","1562585797","1562585461","179","[100,58,70,5,8,98,29,15]","308.4"
"593","645","6","7","1","74","1","1562585778","1562585461","179","[86,23,51,93,50,12,77,26,40]","228.4"
"594","668","6","7","1","65","1","1562585813","1562585461","179","[80,17,32,67,77,70,47,22,91,64,16]","238.9"
"595","661","6","7","1","84","1","1562585786","1562585461","179","[34,25]","308.4"
"596","676","6","7","1","8","1","1562585803","1562585461","179","[30,83,97]","308.4"
"597","693","6","7","1","40","1","1562585775","1562585461","179","[58,59,34,73,14,35,7,95,29,25,84,70,13,86,74,49,43,26,28,4,12]","698.2"
"598","686","6","7","1","4","1","1562585809","1562585461","179","[25,8,15,83,65,50,44,78,22,14,62,85,81,19,61,49]","308.4"
"599","659","6","7","1","57","1","1562585799","1562585461","179","[13,67,36,21]","308.4"
"600","695","6","7","1","33","1","1562585809","1562585461","179","[49,24,13,14,75,47]","148.4"
